timestamp,rel_time,acc_x,acc_y,acc_z,gyro_x,gyro_y,gyro_z,azimuth,pitch,roll,label
3909691273000,0,3.9398265477465,-1.87499519549301,8.43510835624244,-0.03726278,0.0067195175,0.010995574,345.98257,12.001969,23.19036,SIT
3909696238000,0.004965,3.93161573579693,-1.85857357159385,8.41868681807978,-0.03940081,-0.0018325958,0.014049901,345.95813,11.972881,23.199083,SIT
3909701220000,0.009947,3.9247028648027,-1.85368750559191,8.4191646485227,-0.026267206,0.008246681,0.015271631,345.92654,11.956603,23.20463,SIT
3909706250000,0.014977,3.91992680848701,-1.86801567453896,8.44782108615903,-0.025045475,0.006414085,0.0125227375,345.89438,11.944376,23.215984,SIT
3909711224000,0.019951,3.91779700910254,-1.87440507269237,8.46148295448728,-0.027488936,0.004886922,0.015882496,345.86224,11.929572,23.223824,SIT
3909716257000,0.024984,3.92026462976501,-1.86700221070496,8.44914485117493,-0.032070424,0.0018325958,0.015271631,345.83243,11.91484,23.233112,SIT
3909721242000,0.029969,3.92270871659243,-1.8596699502227,8.43692441703783,-0.032070424,-0.0018325958,0.013133603,345.80362,11.901036,23.240086,SIT
3909727026000,0.035753,3.92554454371576,-1.85116246885271,8.42274528142118,-0.026267206,-0.0018325958,0.014966198,345.787462898204,11.8937771377246,23.2431771497006,SIT
3909731262000,0.039989,3.93089133816878,-1.85492450725316,8.42461471535319,-0.03023783,0.0036651916,0.011911872,345.77563,11.888461,23.245441,SIT
3909736254000,0.044981,3.94041756823752,-1.86921385235628,8.4389038615124,-0.038179077,0.0027488936,0.014966198,345.7468,11.879161,23.253538,SIT
3909741245000,0.049972,3.94362860846808,-1.88007779782223,8.44573608318535,-0.027183503,-0.00061086525,0.016493361,345.69592,11.876268,23.25208,SIT
3909746265000,0.054992,3.93913514777082,-1.88681801232826,8.44348930591644,-0.023823744,0.0061086523,0.014049901,345.64706,11.877319,23.248598,SIT
3909751230000,0.059957,3.93469091821666,-1.8934843798626,8.44126714473315,-0.028099801,0.007941248,0.0106901415,345.59296,11.877622,23.246199,SIT
3909756252000,0.064979,3.93019566729601,-1.90022727971306,8.43901947233386,-0.032070424,0.0030543262,0.01740966,345.5377,11.877954,23.24386,SIT
3909761244000,0.069971,3.9280999816015,-1.90498000079779,8.43797160760366,-0.028405234,-0.0033597588,0.01740966,345.48853,11.8749895,23.243614,SIT
3909766465000,0.075192,3.93794938036048,-1.90005524999508,8.44289640982961,-0.03573562,0.0009162979,0.009773844,345.4411,11.875907,23.24228,SIT
3909771238000,0.079965,3.94336827013699,-1.89579385820672,8.44529554508095,-0.021380283,0.004886922,0.013133603,345.39322,11.872877,23.242645,SIT
3909776289000,0.085016,3.9268023739726,-1.89278187708593,8.43475354825654,-0.036957346,-0.005192355,0.018020526,345.34738,11.878921,23.2465,SIT
3909781505000,0.090232,3.9096953230137,-1.88967150418431,8.42386717814446,-0.027183503,0.0036651916,0.0067195175,345.30762,11.872634,23.246393,SIT
3909786325000,0.095052,3.89388704356164,-1.88679727155666,8.41380730392279,-0.030543262,-0.00030543262,0.013744468,345.26004,11.876542,23.251503,SIT
3909791655000,0.100382,3.87640610383562,-1.8836189188792,8.40268300317559,-0.032070424,0.009468411,0.016493361,345.2193,11.875163,23.251455,SIT
3909797041000,0.105768,3.85874149945205,-1.88040717262765,8.39144182422167,-0.02321288,0.00580322,0.015882496,345.17703,11.872441,23.256338,SIT
3909801189000,0.109916,3.84513719589041,-1.87793366288917,8.3827844884807,-0.029321533,0.008857546,0.015882496,345.13574,11.874469,23.256763,SIT
3909806249000,0.114976,3.8470773767249,-1.8770541,8.37631721779686,-0.039095376,0.014966198,0.024740042,345.09268,11.876214,23.25715,SIT
3909811219000,0.119946,3.85647362507156,-1.8770541,8.37161924079558,-0.033292156,0.0076358155,0.015882496,345.0551,11.873489,23.261902,SIT
3909816250000,0.124977,3.86598519960517,-1.8770541,8.36686360250716,-0.035430185,0.0015271631,0.012217305,345.01837,11.876567,23.257725,SIT
3909821255000,0.129982,3.87544761871484,-1.8770541,8.36213254116079,-0.039095376,0.006414085,0.01160644,344.98438,11.877885,23.253304,SIT
3909826277000,0.135004,3.86962790405692,-1.88090221165514,8.48625748962788,-0.027794369,-0.004581489,0.015271631,344.94934,11.875944,23.25532,SIT
3909831301000,0.140028,3.8561662588113,-1.88667150826972,8.67472044274351,-0.03023783,-0.004886922,0.016493361,344.917,11.878208,23.25353,SIT
3909836250000,0.144977,3.84290557363604,-1.89235467884008,8.86036995607338,-0.031154128,0.008246681,0.016493361,344.88397,11.867375,23.25634,SIT
3909841264000,0.149991,3.82947072306647,-1.89811249198209,9.04845778388425,-0.03268129,0.003970624,0.015577064,344.85016,11.857802,23.264248,SIT
3909846238000,0.154965,3.81614305120109,-1.90382437123386,9.23504511047604,-0.028405234,0.0067195175,0.02076942,344.81644,11.848049,23.266394,SIT
3909851288000,0.160015,3.85601717635859,-1.91848402181674,8.91492125798294,-0.023823744,0.005192355,0.011911872,344.7872,11.837257,23.272095,SIT
3909856345000,0.165072,3.92325421388338,-1.93769460396668,8.33380079690599,-0.03023783,0.0033597588,0.018020526,344.7526,11.830933,23.276068,SIT
3909861226000,0.169953,3.94863288507565,-1.94708028507565,8.07752731341142,-0.029626964,0.0070249503,0.0106901415,344.75436,11.808493,23.239685,SIT
3909866557000,0.175284,3.95361618627623,-1.95206358627623,7.97287798819912,-0.023823744,0.0033597588,0.01740966,344.74957,11.789347,23.20566,SIT
3909871247000,0.179974,3.91826695247604,-1.92808486049321,8.30018747974241,-0.035124753,0.012217305,0.02076942,344.70923,11.791303,23.223503,SIT
3909876298000,0.185025,3.85548326453674,-1.88461917995208,8.91353616876997,-0.02443461,0.009162978,0.019547688,344.6677,11.786416,23.245459,SIT
3909881278000,0.190005,3.86172853900709,-1.8646585964539,8.85382560283688,-0.02565634,0.009468411,0.0106901415,344.62747,11.7973995,23.27503,SIT
3909887007000,0.195734,3.92117695894405,-1.85925419464145,8.27555438317573,-0.021380283,0.01282817,0.01863139,344.58298,11.80579,23.303303,SIT
3909891246000,0.199973,3.95121331190073,-1.87052195294228,8.07517461759729,-0.030848695,0.00580322,0.017715093,344.58932,11.793962,23.27991,SIT
3909896266000,0.204993,3.97832867343486,-1.89311813474337,7.97575143654822,-0.038789943,0.0027488936,0.019242255,344.59308,11.782289,23.254536,SIT
3909901248000,0.209975,3.98945332592738,-1.897634430579,7.96484489990186,-0.03268129,-0.0061086523,0.008857546,344.56635,11.781411,23.281467,SIT
3909906245000,0.214972,3.9800607313052,-1.87884919229637,8.06816363689892,-0.02565634,0.0021380284,0.013439035,344.5359,11.78424,23.30311,SIT
3909911221000,0.219948,3.96064208710626,-1.86943911612768,8.16994532255355,-0.03023783,0.004886922,0.015271631,344.5095,11.790184,23.34811,SIT
3909916280000,0.225007,3.92503276136077,-1.87452616266275,8.27168625325493,-0.026267206,0.004276057,0.022602014,344.48038,11.793233,23.390339,SIT
3909921310000,0.230037,3.90255592630221,-1.87227282630221,8.26726020269868,-0.023518313,0.0070249503,0.020158553,344.46478,11.791833,23.422222,SIT
3909926228000,0.234955,3.8932100184939,-1.8629269184939,8.15978197013593,-0.03573562,0.008857546,0.02107485,344.44583,11.794656,23.453247,SIT
3909931224000,0.239951,3.88599118003798,-1.85899670998101,8.1085552827791,-0.026267206,0.0070249503,0.018020526,344.43716,11.788255,23.471441,SIT
3909936330000,0.245057,3.88122959078826,-1.86137750460587,8.12284010024831,-0.03023783,0.0033597588,0.01863139,344.42712,11.789151,23.489016,SIT
3909941222000,0.249949,3.8766675667754,-1.8636585166123,8.13652621992307,-0.027794369,0.0036651916,0.013744468,344.41504,11.786871,23.512945,SIT
3909946278000,0.255005,3.87195260491747,-1.86601599754126,8.15067115473003,-0.023823744,0.004886922,0.019242255,344.39944,11.786576,23.536478,SIT
3909951215000,0.259942,3.87048504090335,-1.86893234090335,8.1565289333867,-0.02687807,0.00030543262,0.021380283,344.38846,11.78531,23.56303,SIT
3909956245000,0.264972,3.87454430642959,-1.87299160642959,8.14841044472065,-0.031154128,0.002443461,0.014049901,344.3792,11.783009,23.587133,SIT
3909961675000,0.270402,3.87977705698416,-1.87783427132277,8.14067557344168,-0.032070424,-0.0009162979,0.0106901415,344.3677,11.787324,23.608097,SIT
3909966261000,0.274988,3.89332957852294,-1.88686928568196,8.14519293910718,-0.032986723,-0.0015271631,0.020158553,344.35486,11.7932825,23.626944,SIT
3909971360000,0.280087,3.90788715940174,-1.89510778119651,8.14546233339999,-0.027183503,-0.002443461,0.012217305,344.34677,11.795957,23.649302,SIT
3909976286000,0.285013,3.91543339899224,-1.88001530201552,8.08509253487163,-0.032986723,-0.0015271631,0.014966198,344.33267,11.804101,23.669628,SIT
3909981265000,0.289992,3.92306083036071,-1.86476043927857,8.02407320339119,-0.028099801,-0.002443461,0.014660766,344.32205,11.804028,23.69436,SIT
3909986253000,0.29498,3.9291327090015,-1.85525859099849,7.98078204599097,-0.027794369,-0.005497787,0.01160644,344.31134,11.806617,23.718943,SIT
3909991261000,0.299988,3.93394561561465,-1.85044568438535,7.95190460631209,-0.024740042,0.00061086525,0.01160644,344.30032,11.807533,23.740564,SIT
3909996270000,0.304997,3.94489632741635,-1.85420951827756,7.92740109417444,-0.028710667,-0.0036651916,0.008857546,344.28595,11.80962,23.773272,SIT
3910001255000,0.309982,3.96060900366429,-1.86468463577619,7.90645091386725,-0.021380283,0.0067195175,0.020158553,344.26868,11.809673,23.798702,SIT
3910006229000,0.314956,3.95964941061947,-1.87434210376106,7.9231761539823,-0.030543262,0.011911872,0.013744468,344.25513,11.812968,23.83051,SIT
3910011278000,0.320005,3.95251766088496,-1.88385112823009,7.95408040283186,-0.03481932,0.00030543262,0.013133603,344.2359,11.815144,23.86248,SIT
3910016245000,0.324972,3.94550173675516,-1.89320571815634,7.98448274072763,-0.039095376,0.012217305,0.01282817,344.2235,11.811141,23.893984,SIT
3910021279000,0.330006,3.93839117463127,-1.90268649240413,8.01529517659784,-0.03481932,0.003970624,0.015271631,344.20807,11.8064995,23.933434,SIT
3910026256000,0.334983,3.92995400720376,-1.90272777168311,8.04064798199061,-0.03573562,-0.0018325958,0.01282817,344.1951,11.803884,23.968515,SIT
3910031252000,0.339979,3.92078728763291,-1.8981443640387,8.06356478091771,-0.032375857,0.00030543262,0.014966198,344.17984,11.800073,24.002516,SIT
3910036253000,0.34498,3.91940427820767,-1.888736865377,8.09067992145042,-0.035124753,0.0036651916,0.011301007,344.17047,11.797571,24.030325,SIT
3910041244000,0.349971,3.92370496282167,-1.875834811535,8.1207846688411,-0.03176499,0.0076358155,0.019242255,344.15704,11.794423,24.055906,SIT
3910046223000,0.35495,3.92471893470383,-1.86570543470383,8.1562323431705,-0.03023783,0.007941248,0.014049901,344.1528,11.783768,24.079586,SIT
3910051250000,0.359977,3.91961746457561,-1.86060396457561,8.20214573413161,-0.029932396,-0.00061086525,0.0125227375,344.1446,11.774325,24.10343,SIT
3910056252000,0.364979,3.92137027592795,-1.85567236203602,8.23538950532391,-0.042760566,-0.012217305,0.014966198,344.13666,11.7628145,24.124636,SIT
3910061227000,0.369954,3.93085272791323,-1.85093113604339,8.25435431027963,-0.02565634,0.0015271631,0.014049901,344.13126,11.74343,24.14103,SIT
3910066250000,0.374977,3.93518370066589,-1.85274319667057,8.29041715452601,-0.03573562,0.0106901415,0.013439035,344.1271,11.733574,24.156994,SIT
3910071246000,0.379973,3.93325280382582,-1.8623976808709,8.3464133241858,-0.03390302,0.008857546,0.015271631,344.12253,11.716974,24.171787,SIT
3910076237000,0.384964,3.93132383942855,-1.87204250285726,8.40235345284313,-0.032070424,0.0018325958,0.019242255,344.10504,11.704836,24.17795,SIT
3910081274000,0.390001,3.92937709655757,-1.88177621721216,8.45880915872311,-0.043982297,0.009162978,0.012217305,344.0914,11.69517,24.181252,SIT
3910086995000,0.395722,3.92716599551233,-1.89283172243835,8.52293127373986,-0.040927973,0.0070249503,0.008552114,344.0746,11.682481,24.188728,SIT
3910091238000,0.399965,3.92532459554081,-1.89854012109577,8.56350363155584,-0.029932396,0.0106901415,0.014660766,344.05798,11.671516,24.192387,SIT
3910096271000,0.404998,3.92297303021906,-1.90324327629409,8.60583170912817,-0.032375857,0.015271631,0.009162978,344.04617,11.661812,24.197361,SIT
3910101246000,0.409973,3.92064856419964,-1.90789223260477,8.6476720003903,-0.032375857,0.0067195175,0.013439035,344.0362,11.649764,24.192324,SIT
3910106241000,0.414968,3.91831475359321,-1.91255987818705,8.68968049382836,-0.038789943,0.0070249503,0.018020526,344.0289,11.639846,24.18416,SIT
3910111217000,0.419944,3.91492105834824,-1.90539667093109,8.72485870825881,-0.034208454,0.0033597588,0.010995574,344.02008,11.624729,24.178667,SIT
3910116256000,0.424983,3.90984399415045,-1.88001129692793,8.75024402924777,-0.03176499,0.004276057,0.008552114,344.00903,11.61334,24.171568,SIT
3910121768000,0.430495,3.90157339400935,-1.87324110599065,8.75701437456463,-0.025045475,-0.002443461,0.013439035,344.00635,11.591844,24.162817,SIT
3910126281000,0.435008,3.89297152349488,-1.88184297650513,8.7484127735098,-0.02443461,0.0009162979,0.011911872,344.0071,11.570992,24.15189,SIT
3910131323000,0.44005,3.89057378486732,-1.87946034539805,8.73884453043307,-0.019547688,0.007330383,0.011301007,344.01135,11.542109,24.140305,SIT
3910136285000,0.445012,3.89526157036599,-1.86539698890204,8.72946876363816,-0.029932396,0.01038471,0.013439035,344.01505,11.518159,24.128956,SIT
3910141244000,0.449971,3.9019830972561,-1.8663458945122,8.70546890644055,-0.029932396,0.0018325958,0.013439035,344.0189,11.492068,24.11878,SIT
3910146264000,0.454991,3.9111438320122,-1.88466736402439,8.6642456956936,-0.022907447,0.0125227375,0.018325957,344.022,11.468488,24.102308,SIT
3910151247000,0.459974,3.91525326742215,-1.8928862348443,8.57849341910294,-0.032375857,0.015577064,0.0106901415,344.0344,11.451362,24.096323,SIT
3910156246000,0.464973,3.91069423273974,-1.88376816547948,8.41436759927626,-0.026267206,0.016493361,0.01160644,344.0431,11.430632,24.087297,SIT
3910161196000,0.469923,3.9036840058517,-1.87583636861723,8.28133668617235,-0.03023783,0.011301007,0.0143553335,344.0484,11.418048,24.084763,SIT
3910166257000,0.474984,3.88911441122245,-1.87097983707415,8.23277137074148,-0.029932396,0.015882496,0.0036651916,344.05814,11.401797,24.08009,SIT
3910171184000,0.479911,3.88218863352533,-1.87105913352533,8.18938846324319,-0.032070424,0.015271631,0.01038471,344.05423,11.399171,24.09073,SIT
3910176290000,0.485017,3.89651035786391,-1.88538085786391,8.15597140554525,-0.03145956,0.017715093,0.013133603,344.05518,11.394201,24.099874,SIT
3910181396000,0.490123,3.9064220460158,-1.8952925460158,8.12704835539535,-0.022296581,0.014660766,0.0070249503,344.0551,11.388105,24.111935,SIT
3910186276000,0.495003,3.90283781532326,-1.89170831532326,8.11271132034665,-0.03390302,0.01863139,0.012217305,344.05133,11.389055,24.12026,SIT
3910191586000,0.500313,3.89893776102462,-1.88780826102462,8.09711098098014,-0.028099801,0.013744468,0.015577064,344.03857,11.391463,24.133717,SIT
3910196244000,0.504971,3.9097707136289,-1.88362832159278,8.05336794935345,-0.036651913,0.016798794,0.011301007,344.02753,11.400139,24.143833,SIT
3910201252000,0.509979,3.92945897898194,-1.87870625525452,7.98938103556034,-0.039095376,0.010995574,0.01038471,344.0136,11.406367,24.157217,SIT
3910206246000,0.514973,3.93913221300106,-1.87092487399788,7.94032154699121,-0.029321533,0.01160644,0.0076358155,344.002,11.410672,24.16883,SIT
3910211221000,0.519948,3.94373422014875,-1.8617208597025,7.89890357876944,-0.026572637,0.018020526,0.016187929,343.98734,11.418469,24.179586,SIT
3910216200000,0.524927,3.94317630101707,-1.85913454949147,7.88664817219422,-0.030848695,0.014049901,0.0106901415,343.972,11.42467,24.202023,SIT
3910221246000,0.529973,3.93890244121341,-1.8612714793933,7.89519584717432,-0.033292156,0.015577064,0.005192355,343.95502,11.430568,24.22032,SIT
3910226251000,0.534978,3.93466330757938,-1.86339104621031,7.90367407017777,-0.033292156,0.011301007,0.003970624,343.92767,11.43336,24.24124,SIT
3910231263000,0.53999,3.93041824508711,-1.86551357745644,7.91216415083577,-0.034208454,0.009773844,0.00580322,343.90164,11.43673,24.260895,SIT
3910236298000,0.545025,3.92679304140829,-1.86838402422488,7.91971676490366,-0.030848695,0.007941248,0.01160644,343.87473,11.439321,24.281404,SIT
3910241249000,0.549976,3.93055283339941,-1.87966340019824,7.91595705143129,-0.03176499,0.010995574,0.0143553335,343.84863,11.443103,24.3008,SIT
3910246255000,0.554982,3.93435439241932,-1.89106807725795,7.9121555718024,-0.03573562,0.018325957,0.0125227375,343.82666,11.444995,24.317379,SIT
3910251248000,0.559975,3.94166839094017,-1.90460891565171,7.93564592998932,-0.038789943,0.009773844,0.0106901415,343.8032,11.4472475,24.337177,SIT
3910256247000,0.564974,3.95189796854701,-1.91995333547009,7.98167897581197,-0.023823744,0.005497787,0.0125227375,343.7802,11.446062,24.353458,SIT
3910261588000,0.570315,3.96389210750244,-1.90181574981325,8.01397522446411,-0.027794369,0.0076358155,0.009468411,343.7537,11.457303,24.369429,SIT
3910266228000,0.574955,3.97471616206561,-1.8729515666369,8.03562322056674,-0.03359759,0.005497787,0.009162978,343.72552,11.465541,24.387339,SIT
3910271183000,0.57991,3.98207412872749,-1.84738496436374,8.06160394390316,-0.028405234,0.0030543262,0.005497787,343.7005,11.47144,24.403242,SIT
3910276302000,0.585029,3.97242475579175,-1.84256027789588,8.10020173791949,-0.035430185,0.010079277,0.014966198,343.6724,11.483339,24.416142,SIT
3910281238000,0.589965,3.96208528453215,-1.83693842302143,8.14788951241248,-0.034208454,0.005192355,0.010079277,343.655,11.486596,24.435377,SIT
3910287043000,0.59577,3.94439167409293,-1.82514268272862,8.25994892202419,-0.03573562,0.0021380284,0.011301007,343.63367,11.494096,24.450972,SIT
3910291228000,0.599955,3.93542249148946,-1.82152862553162,8.31911915246699,-0.032070424,0.0070249503,0.01038471,343.61856,11.497361,24.46115,SIT
3910296297000,0.605024,3.93317348527218,-1.82827564418346,8.34160944947881,-0.031154128,0.011301007,0.013744468,343.6017,11.502287,24.471846,SIT
3910301183000,0.60991,3.93100567221682,-1.83477908334955,8.36328780639333,-0.03390302,0.016798794,0.014966198,343.58936,11.505429,24.468365,SIT
3910306244000,0.614971,3.92876021542738,-1.84151545371786,8.38574260875608,-0.032070424,0.01038471,0.013133603,343.5767,11.507099,24.467207,SIT
3910311563000,0.62029,3.92685789267193,-1.84869079267193,8.41210792671928,-0.03634648,0.009468411,0.008552114,343.56552,11.510774,24.463312,SIT
3910316251000,0.624978,3.93529382623074,-1.85712672623074,8.4964672623074,-0.03023783,0.016187929,0.006414085,343.5529,11.514189,24.4582,SIT
3910321182000,0.629909,3.94416703194288,-1.86599993194288,8.58519931942879,-0.027794369,0.0143553335,0.012217305,343.5365,11.514688,24.44876,SIT
3910326253000,0.63498,3.93855109222726,-1.88521060646567,8.61770626943186,-0.032986723,0.011301007,0.009773844,343.52402,11.514371,24.438871,SIT
3910331532000,0.640259,3.92974036946671,-1.90723745936738,8.63973307633322,-0.03726278,0.009468411,0.010079277,343.50925,11.514262,24.429047,SIT
3910336260000,0.644987,3.91847683386158,-1.92070404409228,8.66655608696088,-0.027488936,0.005497787,0.0070249503,343.49664,11.513396,24.41318,SIT
3910341276000,0.650003,3.90402230162487,-1.93034039891675,8.70028302698094,-0.0290161,0.005192355,0.007941248,343.48328,11.516975,24.3971,SIT
3910346301000,0.655028,3.8977604,-1.9331304492016,8.73289324712323,-0.031154128,0.010079277,0.008552114,343.47037,11.519772,24.377075,SIT
3910351252000,0.659979,3.8977604,-1.93072690396918,8.76413948573022,-0.038179077,0.014966198,0.007941248,343.45792,11.524099,24.357779,SIT
3910356255000,0.664982,3.8977604,-1.92829811447255,8.79571390135347,-0.032070424,0.01160644,0.012217305,343.442,11.519672,24.332417,SIT
3910361224000,0.669951,3.8977604,-1.92588583084098,8.82707373969686,-0.028099801,0.012217305,0.014049901,343.42807,11.517294,24.30565,SIT
3910366231000,0.674958,3.90067823424753,-1.91326683254214,8.84522848568864,-0.03573562,0.009162978,0.009468411,343.41476,11.516165,24.28183,SIT
3910371244000,0.679971,3.90546615669692,-1.89411509274958,8.85480403061733,-0.02687807,0.013133603,0.010995574,343.40002,11.510772,24.25621,SIT
3910376253000,0.68498,3.90454085324781,-1.88103820649562,8.83897160193385,-0.034208454,0.00061086525,0.01038471,343.395,11.508672,24.234737,SIT
3910381265000,0.689992,3.89994567622421,-1.87184785244842,8.80680541075104,-0.027794369,0.0012217305,0.0021380284,343.39325,11.50014,24.209648,SIT
3910386229000,0.694956,3.89539450728065,-1.86274551456129,8.77494727566895,-0.023823744,0.008552114,0.013439035,343.39328,11.4892645,24.189222,SIT
3910391244000,0.699971,3.89079657975205,-1.85354965950409,8.74276183097985,-0.032375857,0.0143553335,0.0076358155,343.401,11.477389,24.171091,SIT
3910396271000,0.704998,3.88750106567145,-1.85310144742683,8.71082031342893,-0.03573562,0.009162978,0.0106901415,343.4005,11.471036,24.152037,SIT
3910401258000,0.709985,3.88593753847967,-1.86404615409546,8.6795497695934,-0.038789943,0.0076358155,0.009468411,343.40387,11.465795,24.131536,SIT
3910406246000,0.714973,3.8843736977673,-1.87499305541151,8.64827295534604,-0.032070424,0.007941248,0.013133603,343.401,11.4609785,24.114412,SIT
3910411225000,0.719952,3.88281267874026,-1.88592020490081,8.61705257480521,-0.027794369,0.00580322,0.014660766,343.39905,11.457264,24.099052,SIT
3910416256000,0.724983,3.88123535664244,-1.89696147605578,8.58550613284882,-0.03970624,0.004276057,0.014660766,343.3993,11.464705,24.084715,SIT
3910421248000,0.729975,3.87967026184771,-1.9079171559615,8.5542042369541,-0.03604105,0.0036651916,0.020158553,343.3974,11.467668,24.070652,SIT
3910426223000,0.73495,3.87720074598405,-1.90833111523836,8.49918958616212,-0.022907447,0.014660766,0.008857546,343.40152,11.469016,24.055164,SIT
3910431242000,0.739969,3.87274276423669,-1.88604115995177,8.39219765182712,-0.027488936,0.008552114,0.01282817,343.39822,11.476273,24.04369,SIT
3910436191000,0.744918,3.86939510630113,-1.86820751260225,8.29323313368202,-0.03940081,0.0125227375,0.016187929,343.39087,11.482959,24.033476,SIT
3910441230000,0.749957,3.87178752587378,-1.87299235174756,8.22863783020177,-0.029932396,0.005192355,0.009468411,343.3844,11.484378,24.028767,SIT
3910446595000,0.755322,3.87433472393039,-1.87808674786079,8.15986350927074,-0.035430185,0.010995574,0.01038471,343.37137,11.494335,24.026804,SIT
3910451215000,0.759942,3.8765282104209,-1.8824737208418,8.10063939693124,-0.02687807,0.015882496,0.010079277,343.3604,11.497072,24.027687,SIT
3910456218000,0.764945,3.88077243291466,-1.88632152386933,8.04823001033752,-0.025045475,0.0125227375,0.007941248,343.34976,11.502683,24.029392,SIT
3910461236000,0.769963,3.89815986645992,-1.88383760479144,8.0780370133354,-0.032070424,0.0076358155,0.01160644,343.33792,11.508909,24.029926,SIT
3910466220000,0.774947,3.91542948957461,-1.88137051577506,8.10764205577092,-0.037873644,0.014049901,0.0125227375,343.3196,11.518113,24.039558,SIT
3910471285000,0.780012,3.93297977871505,-1.87886333161214,8.13772823954618,-0.035430185,0.008857546,0.008246681,343.30093,11.526557,24.05377,SIT
3910476236000,0.784963,3.94725538076407,-1.87866508637131,8.16158696313763,-0.030543262,0.018325957,0.01038471,343.27917,11.532933,24.06035,SIT
3910481242000,0.789969,3.95347804257344,-1.88488776983948,8.16988380223251,-0.03145956,0.015271631,0.014966198,343.25702,11.539824,24.07192,SIT
3910486932000,0.795659,3.96055094423052,-1.89196069611474,8.17931428853892,-0.02687807,0.015271631,0.014049901,343.24203,11.542801,24.083658,SIT
3910501256000,0.809983,3.9713601080688,-1.89071110886486,8.2067902646683,-0.02107485,0.016798794,0.015882496,343.19183,11.555802,24.120657,SIT
3910506288000,0.815015,3.96662394515971,-1.86703024486486,8.22099905012285,-0.035430185,0.015271631,0.011301007,343.17606,11.56335,24.135689,SIT
3910511259000,0.819986,3.95891011342799,-1.86673232985801,8.24119671643002,-0.025350908,0.013133603,0.01038471,343.1601,11.558673,24.149235,SIT
3910516376000,0.825103,3.94897005549696,-1.88164241675456,8.26604686125761,-0.025350908,0.009162978,0.009773844,343.1453,11.559859,24.163784,SIT
3910521165000,0.829892,3.94271242511318,-1.88223293766977,8.29488494666932,-0.03848451,0.013133603,0.014049901,343.13275,11.559505,24.17413,SIT
3910526153000,0.83488,3.93795951944679,-1.87510357917019,8.3281554848515,-0.040011674,0.008552114,0.015577064,343.12042,11.555925,24.187983,SIT
3910531162000,0.839889,3.93318660355206,-1.86794420532809,8.36156609546789,-0.037873644,0.004886922,0.0070249503,343.11426,11.558468,24.19848,SIT
3910536165000,0.844892,3.92841940486543,-1.86079340729814,8.39493668538879,-0.033292156,0.012217305,0.007330383,343.10544,11.561885,24.206358,SIT
3910541168000,0.849895,3.93205531866589,-1.86346501866589,8.41956597922762,-0.023823744,0.012217305,0.008552114,343.09824,11.56249,24.217558,SIT
3910546198000,0.854925,3.94145093091476,-1.87286063091477,8.43835710561732,-0.03268129,0.016798794,0.013744468,343.09058,11.567144,24.22498,SIT
3910551271000,0.859998,3.93901935342466,-1.87837910931507,8.46529410273973,-0.036651913,0.012217305,0.011301007,343.08624,11.569888,24.225712,SIT
3910556246000,0.864973,3.92736461272016,-1.88071005745597,8.49792732803327,-0.03359759,0.004581489,0.009468411,343.08038,11.573621,24.22576,SIT
3910561225000,0.869952,3.91570050136986,-1.88304287972603,8.53058679109589,-0.03756821,0.0027488936,0.013133603,343.07336,11.580936,24.22551,SIT
3910566243000,0.87497,3.90394502622309,-1.88539397475538,8.56350207240705,-0.03268129,0.004276057,0.01740966,343.06656,11.584843,24.226534,SIT
3910571246000,0.879973,3.89551156979032,-1.88438206979032,8.5875655141111,-0.022296581,0.00061086525,0.008552114,343.0623,11.587012,24.230131,SIT
3910576241000,0.884968,3.8907579062705,-1.8796284062705,8.60182655430786,-0.033292156,0.003970624,0.010079277,343.0543,11.595051,24.230442,SIT
3910581275000,0.890002,3.88613676443058,-1.87296042886115,8.61364314976599,-0.03848451,0.004276057,0.014966198,343.052,11.597479,24.22281,SIT
3910586475000,0.895202,3.88156675800679,-1.86382041601358,8.62278311489401,-0.028099801,0.007941248,0.013744468,343.0517,11.598021,24.213806,SIT
3910591232000,0.899959,3.8802736,-1.8595673,8.631481,-0.03176499,0.01740966,0.012217305,343.05844,11.600075,24.204638,SIT
3910596263000,0.90499,3.8863108,-1.8656045,8.641543,-0.032070424,0.02107485,0.014966198,343.06403,11.598945,24.196018,SIT
3910601241000,0.909968,3.8922844,-1.8715781,8.651499,-0.043066,0.0076358155,0.013133603,343.07257,11.59952,24.18849,SIT
3910606236000,0.914963,3.8982784,-1.8775721,8.661489,-0.03359759,0.009773844,0.019547688,343.07904,11.596184,24.175146,SIT
3910611216000,0.919943,3.9042544,-1.8835481,8.671449,-0.024740042,0.0061086523,0.014049901,343.08832,11.594152,24.168198,SIT
3910616272000,0.924999,3.90559040853685,-1.88313731707371,8.67134669856986,-0.034513887,0.0061086523,0.018020526,343.09457,11.591867,24.159864,SIT
3910621218000,0.929945,3.90211649193986,-1.87618948387972,8.66092509387605,-0.034208454,0.016187929,0.01985312,343.10345,11.584,24.150331,SIT
3910626252000,0.934979,3.89858076687935,-1.86911803375871,8.6503180663733,-0.03268129,0.0027488936,0.015577064,343.11032,11.579204,24.148256,SIT
3910632766000,0.941493,3.89614165797395,-1.86585855797395,8.62357586960921,-0.03359759,0.00030543262,0.004581489,343.12012,11.574482,24.140783,SIT
3910636246000,0.944973,3.89508793140255,-1.86480483140255,8.60776997103832,-0.03176499,0.002443461,0.014049901,343.12424,11.570723,24.13484,SIT
3910641340000,0.950067,3.89354549371443,-1.86326239371443,8.58463340571645,-0.037873644,0.005497787,0.015577064,343.1325,11.56836,24.129784,SIT
3910646219000,0.954946,3.89206815694954,-1.86178505694954,8.56247335424308,-0.04184427,-0.0021380284,0.005497787,343.14075,11.564808,24.127348,SIT
3910651268000,0.959995,3.89053934503604,-1.86025624503604,8.53954117554066,-0.027794369,0.004886922,0.01160644,343.14294,11.566467,24.117609,SIT
3910656208000,0.964935,3.88904353777665,-1.85876043777665,8.5171040666498,-0.028099801,0.025350908,0.010995574,343.1506,11.570709,24.107367,SIT
3910661167000,0.969894,3.88709996464997,-1.85898413535003,8.4977031652694,-0.03726278,0.016187929,0.013744468,343.1509,11.571727,24.101587,SIT
3910666173000,0.9749,3.88453994645165,-1.86154415354835,8.48234300261654,-0.034513887,0.015882496,0.01160644,343.15497,11.569089,24.088295,SIT
3910671162000,0.979889,3.88198862188284,-1.86409547811716,8.46703500192236,-0.038179077,0.0070249503,0.009162978,343.15375,11.572101,24.084812,SIT
3910676155000,0.984882,3.87943525175415,-1.86664884824585,8.45171472782613,-0.038179077,0.01282817,0.0106901415,343.153,11.573586,24.077358,SIT
3910681180000,0.989907,3.88182967052777,-1.87714591158332,8.46608129047243,-0.03573562,0.009468411,0.013744468,343.15628,11.580574,24.077421,SIT
3910686543000,0.99527,3.88690580992291,-1.89237432976873,8.49653823285234,-0.03604105,0.0143553335,0.01282817,343.16125,11.587695,24.073727,SIT
3910691163000,0.99989,3.89436126651872,-1.89311886674064,8.50111610223406,-0.03634648,0.00061086525,0.013133603,343.1619,11.595642,24.077375,SIT
3910696223000,1.00495,3.90392059146817,-1.88833920426592,8.49633633994181,-0.027488936,-0.006414085,0.01160644,343.16415,11.600659,24.07797,SIT
3910701237000,1.009964,3.91339301346353,-1.88360299326824,8.49160003003403,-0.029626964,0.0033597588,0.0106901415,343.16763,11.613471,24.076532,SIT
3910706234000,1.014961,3.92283331914978,-1.87888284042511,8.48687977861617,-0.03023783,-0.0033597588,0.007941248,343.17047,11.622818,24.081764,SIT
3910711214000,1.019941,3.92363236207285,-1.87848331896357,8.4879094976222,-0.03268129,-0.0012217305,0.007941248,343.174,11.633049,24.081615,SIT
3910716235000,1.024962,3.91891744195715,-1.88084077902142,8.49262451620336,-0.03176499,-0.00030543262,0.010079277,343.17715,11.642146,24.083618,SIT
3910721219000,1.029946,3.91423726632348,-1.88318086683826,8.4973047895769,-0.030543262,-0.00030543262,0.014966198,343.18216,11.6484785,24.091412,SIT
3910726224000,1.034951,3.90953737084865,-1.88553081457567,8.50200478320341,-0.034513887,0.0018325958,0.01038471,343.18948,11.654822,24.098553,SIT
3910731226000,1.039953,3.90367935304764,-1.88906947736653,8.49932789619344,-0.030848695,-0.0021380284,0.01038471,343.19336,11.659761,24.106579,SIT
3910736223000,1.04495,3.89680524202059,-1.8936522419775,8.49016246267656,-0.03359759,0.00030543262,0.0106901415,343.19904,11.666651,24.112257,SIT
3910741229000,1.049956,3.88991875016519,-1.89824326051712,8.48098052147474,-0.028099801,0.006414085,0.007941248,343.2066,11.670058,24.115671,SIT
3910746257000,1.054984,3.88300199406272,-1.90285445532679,8.47175822815418,-0.025045475,0.009162978,0.01282817,343.21155,11.675539,24.118662,SIT
3910751161000,1.059888,3.88204483197143,-1.89718950212163,8.45386481630081,-0.03359759,0.004581489,0.004886922,343.2175,11.672814,24.12136,SIT
3910756239000,1.064966,3.89226035353429,-1.87165064487974,8.41811027749186,-0.03359759,0.0106901415,0.010079277,343.21878,11.6693535,24.119146,SIT
3910761249000,1.069976,3.90394915547984,-1.85583758150672,8.40504866931668,-0.03726278,0.007330383,0.0143553335,343.22302,11.671417,24.121332,SIT
3910766224000,1.074951,3.91747686132879,-1.85132834622374,8.41857618682567,-0.03268129,0.01160644,0.015271631,343.2276,11.6714945,24.119526,SIT
3910771966000,1.080693,3.92411956008978,-1.85780865964089,8.4252189581718,-0.028710667,0.009468411,0.013439035,343.2297,11.671228,24.124348,SIT
3910776252000,1.084979,3.91993203052438,-1.87455877790247,8.42103177841257,-0.0290161,0.0125227375,0.008246681,343.23315,11.670581,24.126596,SIT
3910781222000,1.089949,3.9116616059481,-1.89363411035086,8.41101066167752,-0.029932396,0.011301007,0.017715093,343.23492,11.671704,24.13245,SIT
3910786249000,1.094976,3.89762450605501,-1.91235029239965,8.3922941376227,-0.042760566,0.0070249503,0.016798794,343.24127,11.67415,24.139097,SIT
3910791178000,1.099905,3.88603475431222,-1.92422191810407,8.38185489056385,-0.030543262,0.0070249503,0.0070249503,343.24646,11.672433,24.144403,SIT
3910796256000,1.104983,3.8789857630961,-1.92187225436537,8.38890402898971,-0.032986723,0.017104227,0.01160644,343.24786,11.679268,24.147055,SIT
3910801200000,1.109927,3.87212278307001,-1.91958459435667,8.39576715234092,-0.031154128,0.0061086523,0.011301007,343.2547,11.678149,24.15772,SIT
3910806244000,1.114971,3.865120988723,-1.91725066290767,8.40276909291202,-0.027183503,0.009162978,0.010079277,343.26187,11.677524,24.161226,SIT
3910811235000,1.119962,3.86129808515488,-1.91378006711523,8.40949121458447,-0.027183503,0.0143553335,0.006414085,343.27313,11.670172,24.169704,SIT
3910816272000,1.124999,3.87153232141601,-1.90500784933927,8.41533931905801,-0.02321288,0.01740966,0.01038471,343.28214,11.661807,24.17719,SIT
3910821241000,1.129968,3.88162839447172,-1.89635405737407,8.42110847354064,-0.026572637,0.008857546,0.012217305,343.29468,11.65398,24.183006,SIT
3910826241000,1.134968,3.89178745369461,-1.88764627717161,8.4269136199309,-0.03176499,0.018325957,0.016187929,343.30655,11.646647,24.182365,SIT
3910831832000,1.140559,3.90314731371765,-1.87790923734922,8.43340493462448,-0.037873644,0.022907447,0.014660766,343.31845,11.642946,24.18543,SIT
3910836251000,1.144978,3.91212589025883,-1.87021330120628,8.43853552300418,-0.042455133,0.012217305,0.01282817,343.3286,11.640741,24.189747,SIT
3910842074000,1.150801,3.92395713062981,-1.86007222038249,8.44529619649027,-0.03726278,0.017104227,0.014660766,343.33932,11.637888,24.18819,SIT
3910846288000,1.155015,3.92556750623558,-1.85697720623558,8.4476673130463,-0.039095376,0.009468411,0.011911872,343.35013,11.637303,24.193335,SIT
3910851281000,1.160008,3.92401374628757,-1.85542344628757,8.44922110544273,-0.03970624,0.011301007,0.008552114,343.36136,11.635251,24.194254,SIT
3910856262000,1.164989,3.92246372059139,-1.85387342059139,8.45077116350934,-0.023823744,0.0106901415,0.005192355,343.3675,11.619396,24.199625,SIT
3910861223000,1.16995,3.92091991864825,-1.85232961864825,8.45231499769293,-0.030543262,0.0125227375,0.005192355,343.37372,11.609977,24.203634,SIT
3910866235000,1.174962,3.91936024613485,-1.85076994613485,8.45387470277823,-0.025350908,0.0012217305,0.013133603,343.379,11.591502,24.212084,SIT
3910871245000,1.179972,3.91780119599675,-1.84921089599675,8.45543378547522,-0.038179077,0.0036651916,0.0125227375,343.3877,11.579004,24.216524,SIT
3910876242000,1.184969,3.91541441497264,-1.85132287005472,8.46381892513681,-0.035124753,0.0061086523,0.008857546,343.3939,11.562183,24.223585,SIT
3910881270000,1.189997,3.91190094175848,-1.85834981648304,8.48138629120759,-0.03756821,0.009162978,0.013133603,343.39783,11.551447,24.229122,SIT
3910887037000,1.195764,3.9078710690405,-1.86640956191901,8.50153565479752,-0.026267206,0.008552114,0.016493361,343.4001,11.53931,24.231611,SIT
3910891269000,1.199996,3.91079970442035,-1.86401479557965,8.49381726980817,-0.03848451,0.002443461,0.009162978,343.40405,11.533445,24.235147,SIT
3910896267000,1.204994,3.91578978432027,-1.85902471567973,8.47884671747289,-0.027794369,0.0021380284,0.016493361,343.40277,11.521217,24.23607,SIT
3910901238000,1.209965,3.90987667634974,-1.86141916182513,8.47899273530817,-0.028099801,-0.0009162979,0.014966198,343.40698,11.513696,24.237783,SIT
3910906261000,1.214988,3.90068331440038,-1.86601584279981,8.48358951227902,-0.035430185,0.002443461,0.020158553,343.4072,11.507229,24.236898,SIT
3910911807000,1.220534,3.90872766434026,-1.86382154521991,8.46677222609956,-0.032986723,0.014966198,0.017715093,343.4096,11.497428,24.236727,SIT
3910916247000,1.224974,3.92105854650556,-1.85971125116481,8.44622075582407,-0.028405234,0.009162978,0.009468411,343.4111,11.489129,24.240746,SIT
3910921246000,1.229973,3.92071577846916,-1.86367552153084,8.43283579415408,-0.03359759,0.008246681,0.009162978,343.42017,11.486344,24.241386,SIT
3910926242000,1.234969,3.91123434318553,-1.87315695681447,8.42572481669557,-0.03145956,0.009162978,0.0061086523,343.43207,11.479342,24.243666,SIT
3910931264000,1.239991,3.90170356496408,-1.88268773503592,8.41857683254892,-0.03481932,0.011301007,0.016798794,343.4311,11.477849,24.245768,SIT
3910936254000,1.244981,3.89223351651226,-1.89215778348774,8.41147439509537,-0.032375857,0.005497787,0.013744468,343.43466,11.472425,24.25078,SIT
3910941244000,1.249971,3.88562476935167,-1.88597237740668,8.41355450098232,-0.035430185,0.008552114,0.010079277,343.43588,11.470591,24.252047,SIT
3910946239000,1.254966,3.88114950356441,-1.86807131425765,8.42250475217513,-0.025045475,0.012217305,0.0106901415,343.4363,11.464885,24.254593,SIT
3910951249000,1.259976,3.88263562231261,-1.86192932231261,8.42557575711795,-0.032375857,0.01038471,0.015577064,343.42944,11.470459,24.252039,SIT
3910956245000,1.264972,3.89190265558784,-1.87119635558784,8.42094262754213,-0.036651913,0.0125227375,0.01740966,343.424,11.472235,24.247643,SIT
3910961222000,1.269949,3.89592321383674,-1.87889128616326,8.43271141257119,-0.03145956,0.008246681,0.016187929,343.41986,11.47131,24.243904,SIT
3910966262000,1.274989,3.89083282446741,-1.88398167553259,8.47343431491247,-0.03634648,0.005497787,0.013133603,343.41614,11.474048,24.239326,SIT
3910971244000,1.279971,3.89144664198743,-1.88826242099372,8.48810195009749,-0.032375857,0.0015271631,0.015271631,343.40912,11.474773,24.238232,SIT
3910976249000,1.284976,3.89836971326641,-1.89172395663321,8.47425587982957,-0.03573562,0.014966198,0.008857546,343.4068,11.477205,24.233839,SIT
3910981582000,1.290309,3.90574648432151,-1.89541234216076,8.45950241474688,-0.033292156,0.013133603,0.008246681,343.40002,11.491923,24.22811,SIT
3910986263000,1.29499,3.90419243288385,-1.90249726706965,8.44688650162745,-0.039095376,0.013744468,0.008857546,343.39615,11.508475,24.21854,SIT
3910991217000,1.299944,3.89978031838557,-1.91132154213708,8.43364988170743,-0.02565634,0.005497787,0.0143553335,343.3905,11.519371,24.211922,SIT
3910996254000,1.304981,3.90049564076328,-1.90715564914905,8.44400150170191,-0.030543262,0.0106901415,0.016798794,343.3844,11.536757,24.204903,SIT
3911001250000,1.309977,3.90543073027334,-1.89235032908716,8.47361214182568,-0.03268129,0.004276057,0.013744468,343.37717,11.549476,24.203585,SIT
3911006253000,1.31498,3.9101683213468,-1.8823842179798,8.47655760639731,-0.036957346,0.005497787,0.015271631,343.36548,11.560052,24.197807,SIT
3911011225000,1.319952,3.91474897065897,-1.87551324401154,8.46281561063011,-0.028710667,0.0036651916,0.009773844,343.3565,11.566402,24.195482,SIT
3911016262000,1.324989,3.91938950376142,-1.86855244435786,8.44889396286676,-0.032375857,0.007941248,0.01160644,343.34943,11.572523,24.190243,SIT
3911021245000,1.329972,3.92398028725349,-1.86166626911977,8.43512156445406,-0.0290161,0.006414085,0.010079277,343.3447,11.573526,24.187824,SIT
3911026248000,1.334975,3.92542567206327,-1.86322615080559,8.43078545054194,-0.040317107,0.0143553335,0.013133603,343.3391,11.57995,24.18132,SIT
3911031237000,1.339964,3.92309295771897,-1.87488974688507,8.43778373972268,-0.040927973,0.008246681,0.009773844,343.335,11.581685,24.179806,SIT
3911036179000,1.344906,3.9207822192364,-1.88644346342642,8.44471609994141,-0.032375857,0.013744468,0.016187929,343.32684,11.584645,24.175953,SIT
3911041244000,1.349971,3.91841396945611,-1.89828473705693,8.45182099765648,-0.03359759,0.013133603,0.014049901,343.32162,11.588731,24.176317,SIT
3911046238000,1.354965,3.9184447110077,-1.90272316200107,8.45479025702524,-0.034513887,0.0027488936,0.012217305,343.3142,11.591224,24.177576,SIT
3911051228000,1.359955,3.92272144557007,-1.89416964821908,8.45051343314838,-0.03176499,0.0012217305,0.007330383,343.30914,11.592367,24.176958,SIT
3911056228000,1.364955,3.92613542592615,-1.88698627592924,8.4465663092523,-0.03268129,0.0067195175,0.012217305,343.30222,11.589894,24.176014,SIT
3911061231000,1.369958,3.92318204304999,-1.88993967422487,8.44508958697528,-0.033292156,0.008552114,0.0125227375,343.29785,11.585668,24.17713,SIT
3911066287000,1.375014,3.92019737308759,-1.89292435977008,8.44359722082845,-0.027488936,0.009468411,0.01160644,343.2927,11.579755,24.177904,SIT
3911071271000,1.379998,3.91725520633668,-1.8958665418819,8.44212610673119,-0.034513887,0.0061086523,0.0143553335,343.28622,11.577965,24.179155,SIT
3911077216000,1.385943,3.91374573977686,-1.89937602676447,8.44037133680577,-0.029626964,0.008246681,0.015577064,343.28104,11.571477,24.178823,SIT
3911081318000,1.390045,3.9113242373667,-1.90179754181717,8.4391605603156,-0.03970624,0.012217305,0.01038471,343.27692,11.5704,24.179182,SIT
3911087023000,1.39575,3.90795644817851,-1.90516534858842,8.43747663055538,-0.033292156,0.008857546,0.012217305,343.27002,11.564906,24.180534,SIT
3911091247000,1.399974,3.89866536617549,-1.90289395854169,8.44872938473239,-0.038789943,0.0061086523,0.007941248,343.26697,11.563859,24.181366,SIT
3911097154000,1.405881,3.88253165833254,-1.89751599977184,8.4702408828786,-0.027488936,0.005192355,0.009773844,343.26144,11.557849,24.182165,SIT
3911101222000,1.409949,3.88424046367803,-1.89057403632197,8.47829089066518,-0.03573562,0.005192355,0.0125227375,343.258870642606,11.5540804599472,24.1818458446303,SIT
3911106242000,1.414969,3.89498960532141,-1.87982489467859,8.48366557372834,-0.040317107,0.007941248,0.0106901415,343.2557,11.54943,24.181452,SIT
3911111232000,1.419959,3.90435856437692,-1.88035318218846,8.47185474014354,-0.026267206,0.009162978,0.01282817,343.2489,11.531982,24.181307,SIT
3911116258000,1.424985,3.91333106820766,-1.88483943410383,8.45390982617206,-0.022296581,0.0106901415,0.018020526,343.24176,11.516243,24.17526,SIT
3911121251000,1.429978,3.9197002156964,-1.8852377921518,8.446744,-0.03726278,0.013133603,0.018325957,343.2357,11.501065,24.170177,SIT
3911126267000,1.434994,3.92438061018171,-1.88289759490914,8.446744,-0.041233405,0.00580322,0.013744468,343.22903,11.482746,24.167625,SIT
3911131264000,1.439991,3.92904327590003,-1.88056626204998,8.446744,-0.029321533,0.011911872,0.009162978,343.21603,11.464801,24.16128,SIT
3911136251000,1.444978,3.93369661068836,-1.87823959465582,8.446744,-0.027488936,0.0021380284,0.014049901,343.20016,11.451635,24.161348,SIT
3911141247000,1.449974,3.9321894256796,-1.87550283027184,8.44751965106229,-0.031154128,0.009162978,0.017715093,343.18546,11.434856,24.154474,SIT
3911146222000,1.454949,3.92433039625231,-1.87235921850092,8.44909148977303,-0.037873644,0.004276057,0.010079277,343.17148,11.418316,24.154308,SIT
3911151251000,1.459978,3.91638606278701,-1.86918148511481,8.45068038964767,-0.03634648,0.009162978,0.017715093,343.15656,11.395013,24.152752,SIT
3911156246000,1.464973,3.90849543927158,-1.86602523570863,8.452258547308,-0.024129177,0.009773844,0.007941248,343.14874,11.368543,24.155396,SIT
3911161218000,1.469945,3.90064114895751,-1.862883519583,8.4538294381763,-0.026572637,0.01038471,0.017715093,343.13303,11.349559,24.155144,SIT
3911167036000,1.475763,3.8914504287147,-1.85920723148588,8.4556676206123,-0.038179077,0.01160644,0.01160644,343.12534,11.327643,24.156244,SIT
3911171218000,1.479945,3.88720167376079,-1.8579005,8.45583002662722,-0.032375857,0.004886922,0.01038471,343.11273,11.304423,24.158642,SIT
3911176234000,1.484961,3.88487180525754,-1.8579005,8.45466506804734,-0.03023783,-0.0009162979,0.004886922,343.10358,11.284663,24.1612,SIT
3911181221000,1.489948,3.88255540688719,-1.8579005,8.45350684467456,-0.028099801,0.014966198,0.010995574,343.09836,11.2680645,24.15585,SIT
3911186254000,1.494981,3.88021764209914,-1.8579005,8.45233793786982,-0.036957346,0.014049901,0.010995574,343.09512,11.253038,24.157557,SIT
3911191180000,1.499907,3.87792957745659,-1.8579005,8.45119388165681,-0.029626964,0.0076358155,0.0125227375,343.0903,11.234776,24.156034,SIT
3911196271000,1.504998,3.87556487240275,-1.8579005,8.45001150443787,-0.03481932,0.0018325958,0.010995574,343.0864,11.22223,24.154922,SIT
3911201179000,1.509906,3.87328516853235,-1.8579005,8.44887162869822,-0.02076942,0.002443461,0.0106901415,343.08167,11.203664,24.153742,SIT
3911206243000,1.51497,3.87093300463673,-1.8579005,8.44769552218935,-0.028405234,0.0021380284,0.01160644,343.0766,11.192566,24.154505,SIT
3911211226000,1.519953,3.86985151762599,-1.85872201762599,8.446744,-0.03390302,0.0030543262,0.005497787,343.07645,11.181549,24.156328,SIT
3911216274000,1.525001,3.87453212820836,-1.86340262820836,8.446744,-0.03176499,-0.0009162979,0.014966198,343.07083,11.172863,24.158594,SIT
3911221219000,1.529946,3.87911723504865,-1.86798773504865,8.446744,-0.031154128,0.004581489,0.014660766,343.06955,11.164676,24.156672,SIT
3911226239000,1.534966,3.88377188344871,-1.87264238344871,8.446744,-0.033292156,0.010079277,0.013133603,343.06552,11.157915,24.155407,SIT
3911231384000,1.540111,3.88852767664671,-1.87671002335329,8.44846438323353,-0.03756821,0.00030543262,0.0143553335,343.06476,11.151032,24.159342,SIT
3911236858000,1.545585,3.89339453856937,-1.87184316143063,8.47279869284687,-0.035124753,0.002443461,0.0106901415,343.06705,11.142475,24.158796,SIT
3911241354000,1.550081,3.89739187346238,-1.86784582653762,8.49278536731189,-0.03634648,0.014660766,0.01038471,343.0663,11.1378355,24.1595,SIT
3911246238000,1.554965,3.90173417408903,-1.86350352591097,8.51449687044516,-0.029321533,0.0070249503,0.007941248,343.06613,11.129956,24.165432,SIT
3911251187000,1.559914,3.90613426536694,-1.85910343463306,8.5364973268347,-0.030543262,0.014660766,0.013744468,343.0653,11.125697,24.163176,SIT
3911256240000,1.564967,3.91084970594766,-1.87195052379064,8.52846204956384,-0.032986723,0.010995574,0.015882496,343.065,11.119477,24.166533,SIT
3911261239000,1.569966,3.91559538628073,-1.89093324512292,8.50947942733941,-0.026572637,0.00030543262,0.0070249503,343.0663,11.110882,24.170044,SIT
3911266264000,1.574991,3.91362525379675,-1.89456332689838,8.50584940744239,-0.03481932,0.0033597588,0.009468411,343.06342,11.111033,24.165655,SIT
3911271246000,1.579973,3.90911905644125,-1.89231022822063,8.5081025531734,-0.036651913,0.0027488936,0.010079277,343.06284,11.1067505,24.16594,SIT
3911276237000,1.584964,3.90460471862486,-1.89005305931243,8.51035976921987,-0.03176499,-0.0012217305,0.01160644,343.0583,11.105883,24.168594,SIT
3911281325000,1.590052,3.90000264472988,-1.88775202236494,8.51266085422176,-0.040317107,-0.0012217305,0.013133603,343.05683040548,11.1062065934086,24.1699194612109,SIT
3911287039000,1.595766,3.90103672698816,-1.87680191903553,8.50395281376904,-0.032986723,-0.004276057,0.008246681,343.05518,11.10657,24.171408,SIT
3911291272000,1.599999,3.90532380338409,-1.86394068984772,8.49109131598985,-0.03023783,0.0015271631,0.01282817,343.05002,11.108209,24.172394,SIT
3911296231000,1.604958,3.90169462730788,-1.86918564538423,8.4765872588002,-0.032070424,0.010079277,0.0125227375,343.04892,11.109641,24.171873,SIT
3911301231000,1.609958,3.89219854401587,-1.88817781196827,8.4623433321765,-0.026572637,0.009162978,0.01160644,343.0464,11.108913,24.172165,SIT
3911306447000,1.615174,3.89945020987959,-1.89057439506021,8.46195412847255,-0.034513887,0.013744468,0.008857546,343.04944,11.111382,24.172754,SIT
3911311230000,1.619957,3.91682229081255,-1.88188835459372,8.47063989684271,-0.037873644,0.014660766,0.0143553335,343.0499,11.112135,24.174112,SIT
3911316215000,1.624942,3.92438218842709,-1.87494548842709,8.47283823553386,-0.03145956,0.013439035,0.014049901,343.05185,11.113652,24.174938,SIT
3911321255000,1.629982,3.91980732733046,-1.87037062733046,8.46711965916307,-0.040011674,0.007330383,0.01160644,343.05252,11.1201935,24.17666,SIT
3911326237000,1.634964,3.91528511344486,-1.86584841344486,8.46146689180608,-0.032986723,0.005497787,0.0067195175,343.0484,11.119592,24.177265,SIT
3911331278000,1.640005,3.9107093446377,-1.8612726446377,8.45574718079712,-0.029932396,0.0061086523,0.0143553335,343.04105,11.123346,24.178284,SIT
3911336217000,1.644944,3.9062261623051,-1.8567894623051,8.45014320288138,-0.03268129,0.003970624,0.0143553335,343.0373,11.125262,24.18131,SIT
3911341247000,1.649974,3.90166037831382,-1.85222367831382,8.44443597289228,-0.029932396,-0.0033597588,0.0076358155,343.03302,11.125038,24.185572,SIT
3911346271000,1.654998,3.89710004058575,-1.84766334058575,8.43873555073219,-0.031154128,-0.0012217305,0.008552114,343.02524,11.132501,24.186054,SIT
3911351252000,1.659979,3.89257873441069,-1.84314203441069,8.43308391801336,-0.0290161,-0.002443461,0.0106901415,343.01852,11.137541,24.189814,SIT
3911356477000,1.665204,3.88834724390113,-1.8397287634068,8.42824458927456,-0.027794369,0.0018325958,0.011301007,343.01437,11.137817,24.192707,SIT
3911361233000,1.66996,3.89037933370215,-1.8519213022129,8.43637311822968,-0.032375857,0.0018325958,0.0076358155,343.01056,11.138808,24.1972,SIT
3911366255000,1.674982,3.89252507696975,-1.86479576181851,8.44495627054519,-0.029932396,0.005497787,0.0070249503,343.00793,11.136595,24.19774,SIT
3911371244000,1.679971,3.8946567203712,-1.87758562222718,8.45348302221826,-0.032375857,0.0061086523,0.009162978,343.00543,11.136772,24.19916,SIT
3911376289000,1.685016,3.89681229081824,-1.89051904490943,8.46210548407245,-0.03726278,-0.002443461,0.008857546,343.00348,11.1366415,24.202303,SIT
3911381265000,1.689992,3.89828594214968,-1.89357998925159,8.4637957875,-0.029321533,0.0015271631,0.010079277,343.00363,11.130197,24.203045,SIT
3911386251000,1.694978,3.89923637855096,-1.88882780724522,8.4599939625,-0.038179077,0.008246681,0.008246681,343.00436,11.129124,24.205511,SIT
3911391243000,1.69997,3.90018795867834,-1.88406990660828,8.4561875625,-0.032070424,0.0027488936,0.0076358155,343.00247,11.125105,24.209612,SIT
3911396264000,1.704991,3.90114506681529,-1.87928436592357,8.45235905,-0.03023783,0.002443461,0.004886922,343.0026,11.12406,24.210598,SIT
3911401245000,1.709972,3.90209455011146,-1.87453694944268,8.4485610375,-0.028710667,0.011301007,0.01038471,342.99603,11.121425,24.207676,SIT
3911406244000,1.714971,3.90304746458599,-1.86977237707006,8.4447493,-0.024740042,0.0143553335,0.014660766,342.99036,11.117361,24.206764,SIT
3911411264000,1.719991,3.90400438210191,-1.86498778949045,8.44092155,-0.02565634,0.008857546,0.006414085,342.9894,11.113168,24.207626,SIT
3911416312000,1.725039,3.90496663700637,-1.86017651496815,8.43707245,-0.028405234,0.008857546,0.010079277,342.98413,11.110528,24.205223,SIT
3911422099000,1.730826,3.90606976084395,-1.85466089578025,8.4326598625,-0.034208454,0.004581489,0.010995574,342.9816,11.107783,24.206244,SIT
3911426240000,1.734967,3.90685912248408,-1.85071408757962,8.42950235,-0.028405234,0.0143553335,0.015577064,342.97775,11.103747,24.202929,SIT
3911431267000,1.739994,3.90496396249877,-1.84595046249877,8.42996328706345,-0.034208454,0.011301007,0.01282817,342.97656,11.098479,24.206062,SIT
3911436235000,1.744962,3.90028343693064,-1.84126993693064,8.43464391037875,-0.034208454,0.0061086523,0.008552114,342.97495,11.090839,24.206924,SIT
3911441209000,1.749936,3.89995374990524,-1.84313359981047,8.44155379142145,-0.028099801,0.0067195175,0.01160644,342.96964,11.083341,24.20743,SIT
3911446224000,1.754951,3.90474453813466,-1.85271517626933,8.45113556798005,-0.027488936,0.010079277,0.0106901415,342.9667,11.076546,24.209093,SIT
3911451230000,1.759957,3.90951219262782,-1.86225048525565,8.45849603804994,-0.030848695,0.012217305,0.0106901415,342.9636,11.069308,24.209467,SIT
3911456242000,1.764969,3.91426832833928,-1.87176275667856,8.46325227308759,-0.032375857,0.008246681,0.009468411,342.96097,11.061487,24.210773,SIT
3911461217000,1.769944,3.91589500313321,-1.87909209373358,8.46691691174467,-0.02443461,0.005192355,0.01282817,342.965,11.051099,24.215769,SIT
3911466268000,1.774995,3.91354157232655,-1.88379895534689,8.46927014595699,-0.029932396,0.0143553335,0.014660766,342.9702,11.044592,24.218431,SIT
3911471212000,1.779939,3.91123799641919,-1.88840610716162,8.47157352943466,-0.035124753,0.0036651916,0.01282817,342.9712,11.036277,24.226957,SIT
3911476282000,1.785009,3.90887571287341,-1.89313067425319,8.47393561564659,-0.023823744,0.0076358155,0.0070249503,342.9743,11.025136,24.228846,SIT
3911487052000,1.795779,3.92903828498028,-1.88174031001315,8.46100706321432,-0.03390302,0.013439035,0.016187929,342.9754,11.013366,24.236996,SIT
3911492231000,1.800958,3.9311582448737,-1.87582676121843,8.45386627117385,-0.03726278,0.004276057,0.010995574,342.98068,11.012483,24.244654,SIT
3911496228000,1.804955,3.92404857369985,-1.87404934342496,8.45031136134844,-0.03145956,0.0061086523,0.01282817,342.9833,11.009526,24.246607,SIT
3911501214000,1.809941,3.91517971693908,-1.87183212923477,8.44587684036033,-0.032986723,0.007330383,0.011911872,342.98633,11.007837,24.254665,SIT
3911506162000,1.814889,3.90637845274889,-1.86963181318722,8.4414761163633,-0.032070424,0.008552114,0.009468411,342.9892,11.004174,24.261972,SIT
3911511375000,1.820102,3.89764461885082,-1.8674773,8.43728278356713,-0.03268129,0.0076358155,0.005497787,342.99265,11.0011425,24.26947,SIT
3911516168000,1.824895,3.89613663230724,-1.8674773,8.43879080160321,-0.023518313,0.011911872,0.014660766,342.99072,10.994862,24.273188,SIT
3911521462000,1.830189,3.89447101979697,-1.8674773,8.4404564488978,-0.022907447,-0.0015271631,0.016187929,342.99118,10.993862,24.279129,SIT
3911526152000,1.834879,3.89299543939026,-1.8674773,8.44193206012024,-0.03145956,0.0012217305,0.0125227375,342.99176,10.993429,24.279083,SIT
3911531179000,1.839906,3.89141383113769,-1.8674773,8.44351370140281,-0.031154128,0.0015271631,0.02076942,342.98712,10.992262,24.2826,SIT
3911536163000,1.84489,3.8898457516607,-1.8674773,8.44508181362725,-0.028099801,0.004276057,0.0143553335,342.98843,10.99044,24.285677,SIT
3911541140000,1.849867,3.88827987454253,-1.8674773,8.44664772344689,-0.03176499,0.006414085,0.010995574,342.9863,10.991651,24.288113,SIT
3911546201000,1.854928,3.88385615687542,-1.86314985687542,8.46838121562292,-0.032375857,0.01282817,0.017104227,342.9837,10.990588,24.288437,SIT
3911551186000,1.859913,3.87931939473534,-1.85861309473534,8.49106502632329,-0.032070424,0.003970624,0.016493361,342.98334,10.989103,24.292992,SIT
3911556242000,1.864969,3.88265004339492,-1.85385725660508,8.50271465566644,-0.028099801,0.002443461,0.018325957,342.982,10.987722,24.292017,SIT
3911561225000,1.869952,3.88736511052268,-1.84914218947732,8.51214498685901,-0.03634648,0.005192355,0.01740966,342.98135,10.989086,24.292503,SIT
3911566245000,1.874972,3.89222581901666,-1.85640813803332,8.50569739313287,-0.031154128,-0.0018325958,0.015577064,342.98193,10.984944,24.293352,SIT
3911571177000,1.879904,3.89702394758228,-1.86600439516457,8.49610093559529,-0.03573562,0.009773844,0.011911872,342.98474,10.98519,24.288416,SIT
3911576219000,1.884946,3.91371552752722,-1.8634885181182,8.48665026963453,-0.033292156,0.011301007,0.014049901,342.98557,10.982107,24.288025,SIT
3911581249000,1.889976,3.9324446503888,-1.8588062374028,8.47728551263608,-0.042455133,-0.0015271631,0.014966198,342.9877,10.9827175,24.28874,SIT
3911586248000,1.894975,3.93252676091468,-1.86144133908532,8.46839254366792,-0.034208454,0.004886922,0.01038471,342.9882,10.9903555,24.283566,SIT
3911591203000,1.89993,3.92816887277069,-1.86579922722931,8.45967704040775,-0.02321288,0.006414085,0.0125227375,342.98526,11.000137,24.282902,SIT
3911596765000,1.905492,3.91893604455959,-1.86369992227979,8.4676529753886,-0.031154128,0.010079277,0.01740966,342.9764,11.007766,24.281483,SIT
3911601264000,1.909991,3.90963422607945,-1.85904901303972,8.48160550885147,-0.028710667,0.009162978,0.013439035,342.96957,11.00895,24.281418,SIT
3911606244000,1.914971,3.89998037696813,-1.86157891151593,8.45930234984612,-0.032070424,0.008552114,0.0106901415,342.95422,11.012518,24.2766,SIT
3911611249000,1.919976,3.89046347356299,-1.86633736321851,8.42599348605182,-0.026267206,0.015882496,0.009773844,342.94034,11.012776,24.270206,SIT
3911616240000,1.924967,3.8933618725795,-1.86402511828034,8.42664445429916,-0.02687807,0.005192355,0.01282817,342.92725,11.014717,24.26642,SIT
3911621244000,1.929971,3.9001952259518,-1.85946954936546,8.43803337658634,-0.040317107,0.007330383,0.01282817,342.91696,11.01803,24.25755,SIT
3911626232000,1.934959,3.90700673007272,-1.85492854661819,8.44938588345454,-0.03726278,0.009468411,0.013133603,342.90442,11.0188055,24.253122,SIT
3911631354000,1.940081,3.91400122167403,-1.85026555221731,8.46104336945672,-0.047036625,0.006414085,0.017715093,342.8907,11.026782,24.249516,SIT
3911636251000,1.944978,3.92415422844639,-1.85073710948213,8.45865762035011,-0.040011674,0.007941248,0.014660766,342.87988,11.028603,24.244692,SIT
3911641250000,1.949977,3.93724898315098,-1.855102027717,8.44556259217724,-0.043982297,0.0009162979,0.013133603,342.86676,11.0363455,24.242964,SIT
3911646218000,1.954945,3.93963192155466,-1.85961835098438,8.44060268403113,-0.031154128,-0.004276057,0.0125227375,342.85547,11.035983,24.24107,SIT
3911651255000,1.959982,3.92245389890624,-1.86452635745536,8.45041864572417,-0.023823744,-0.004886922,0.009468411,342.84546,11.0375,24.240225,SIT
3911656245000,1.964972,3.90543616354479,-1.86938856755863,8.46014301515999,-0.029626964,0.0033597588,0.008857546,342.83768,11.03971,24.244576,SIT
3911661231000,1.969958,3.88843206965458,-1.87424688009869,8.4698595895101,-0.035124753,-0.0009162979,0.01282817,342.8286,11.040204,24.252407,SIT
3911666223000,1.97495,3.87978475337509,-1.87941001290022,8.47429608352513,-0.032070424,-0.0018325958,0.020463986,342.8195,11.04038,24.256746,SIT
3911671247000,1.979974,3.8825881819665,-1.88501688471959,8.4714927427531,-0.030848695,-0.00580322,0.009773844,342.81436,11.040709,24.263935,SIT
3911676235000,1.984962,3.8853715222957,-1.89058357990969,8.46870948961399,-0.02076942,0.0018325958,0.0143553335,342.80676,11.040892,24.259695,SIT
3911681269000,1.989996,3.88818053095994,-1.89620161190386,8.46590056894392,-0.027183503,0.004886922,0.011301007,342.8043,11.0428505,24.258986,SIT
3911687126000,1.995853,3.89144877961835,-1.90273812628405,8.4626324226657,-0.03268129,0.008246681,0.0061086523,342.8017,11.04231,24.25601,SIT
3911691244000,1.999971,3.89374665361107,-1.90733388626657,8.4603346206555,-0.03634648,0.008552114,0.0106901415,342.79712,11.043785,24.252733,SIT
3911696247000,2.004974,3.89653836404953,-1.91291732171886,8.45754299766934,-0.041233405,0.00580322,0.010995574,342.7955,11.045855,24.250038,SIT
3911701250000,2.009977,3.89211151377647,-1.90971248428392,8.45914550209688,-0.035124753,0.0076358155,0.004276057,342.79507,11.045659,24.24624,SIT
3911706244000,2.014971,3.88208288320403,-1.89968380135248,8.46415992210107,-0.02443461,0.009162978,0.017715093,342.7882,11.047888,24.242159,SIT
3911711227000,2.019954,3.86965658821726,-1.89322429607242,8.45993106753521,-0.02687807,-0.0033597588,0.006414085,342.78513,11.063939,24.243837,SIT
3911716258000,2.024985,3.85581018124341,-1.88860882708114,8.45069993677555,-0.022907447,-0.0070249503,0.0061086523,342.77548,11.077931,24.241297,SIT
3911721244000,2.029971,3.84726777167332,-1.88532658583666,8.446744,-0.02687807,0.004276057,0.007330383,342.77365,11.096354,24.237707,SIT
3911726231000,2.034958,3.84267087080225,-1.88302813540113,8.446744,-0.025045475,0.0061086523,0.014660766,342.76926,11.112355,24.237423,SIT
3911731247000,2.039974,3.83804723840416,-1.88071631920208,8.446744,-0.025961773,0.013744468,0.018020526,342.76816,11.128815,24.230883,SIT
3911736252000,2.044979,3.8334337455508,-1.8784095727754,8.446744,-0.032375857,0.013744468,0.01160644,342.76755,11.145352,24.226254,SIT
3911741244000,2.049971,3.82869764103516,-1.87097862310547,8.44876920125786,-0.03573562,0.014660766,0.010995574,342.76492,11.161849,24.218863,SIT
3911746273000,2.055,3.82373200259821,-1.85608170779462,8.45373494339623,-0.03176499,0.015577064,0.018020526,342.7621,11.177653,24.211552,SIT
3911751246000,2.059973,3.83593972468214,-1.84462526882946,8.45262249159216,-0.03573562,0.002443461,0.01038471,342.75974,11.188501,24.20516,SIT
3911756246000,2.064973,3.86736224949553,-1.83676963762612,8.44476669633336,-0.03604105,0.004886922,0.008552114,342.75482,11.198524,24.193693,SIT
3911761515000,2.070242,3.89700468210796,-1.83030367683807,8.43641130578135,-0.039095376,-0.002443461,0.0070249503,342.76407,11.209271,24.19407,SIT
3911766261000,2.074988,3.88870228137729,-1.84275727793406,8.42810916512924,-0.03145956,0.0009162979,0.014966198,342.77176,11.21785,24.190256,SIT
3911771252000,2.079979,3.87997129063841,-1.85585376404238,8.41937844789478,-0.039095376,-0.0036651916,0.017104227,342.77933,11.231378,24.199282,SIT
3911776235000,2.084962,3.87167707797194,-1.85443563898597,8.4145490666265,-0.021991149,0.00061086525,0.01160644,342.78745,11.236138,24.204632,SIT
3911782018000,2.090745,3.86214232125334,-1.84966826062667,8.40978158870621,-0.022296581,0.0067195175,0.011301007,342.79306,11.24786,24.210052,SIT
3911786248000,2.094975,3.86876226150538,-1.88090543956989,8.41076431397849,-0.020463986,0.0125227375,0.016798794,342.79803,11.256047,24.213385,SIT
3911791242000,2.099969,3.88664970019635,-1.94351152168303,8.41523626704067,-0.025961773,0.0018325958,0.015271631,342.80447,11.265046,24.219902,SIT
3911796245000,2.104972,3.89218842587227,-1.96011108409508,8.42730062354621,-0.01740966,0.008246681,0.018325957,342.8102,11.270378,24.218029,SIT
3911801224000,2.109951,3.87759460199959,-1.90173573780861,8.45162366333401,-0.028710667,0.007941248,0.013744468,342.8175,11.280899,24.221443,SIT
3911806204000,2.114931,3.87070908113818,-1.86663775943091,8.46002118095076,-0.028710667,0.0070249503,0.016187929,342.81592,11.29426,24.225899,SIT
3911811646000,2.120373,3.87514910035781,-1.86441774982109,8.44448102095757,-0.022907447,0.0061086523,0.012217305,342.81766,11.307214,24.230957,SIT
3911817622000,2.126349,3.88002479952292,-1.86197990023854,8.42741597205657,-0.025350908,0.0015271631,0.013439035,342.81836,11.3149605,24.229223,SIT
3911821252000,2.129979,3.8829864440961,-1.86049907795195,8.41705015420003,-0.032375857,-0.00061086525,0.007941248,342.82242,11.320918,24.227757,SIT
3911826251000,2.134978,3.88706502845459,-1.8584597857727,8.40277502376896,-0.03390302,-0.0018325958,0.009773844,342.82364,11.326895,24.226791,SIT
3911831227000,2.139954,3.88954451467765,-1.85585912798352,8.4049841018389,-0.02687807,-0.005497787,0.015577064,342.82495,11.332046,24.227165,SIT
3911836220000,2.144947,3.89142940981926,-1.8530317852711,8.41346611029426,-0.03145956,0.0030543262,0.0125227375,342.82916,11.33952,24.224867,SIT
3911841246000,2.149973,3.89332676270966,-1.85018575593551,8.42200417848907,-0.02565634,0.0021380284,0.013744468,342.82855,11.339937,24.23097,SIT
3911846258000,2.154985,3.89521883049451,-1.84734765425823,8.43051846376412,-0.040011674,-0.0012217305,0.017104227,342.82855,11.346592,24.235312,SIT
3911851972000,2.160699,3.89737590857165,-1.84411203714252,8.44022529258726,-0.04062254,0.0033597588,0.014049901,342.833,11.347205,24.23924,SIT
3911856248000,2.164975,3.89899013080789,-1.84169070378816,8.44748927579479,-0.033292156,0.00061086525,0.01282817,342.8351,11.349941,24.245667,SIT
3911861268000,2.169995,3.90088521865305,-1.83884807202042,8.45601715130969,-0.024129177,0.010079277,0.014966198,342.83817,11.352236,24.24722,SIT
3911866285000,2.175012,3.9027791739756,-1.8360071390366,8.46453993048466,-0.040317107,0.013744468,0.01038471,342.84296,11.358182,24.251488,SIT
3911871267000,2.179994,3.90465991653428,-1.83318602519857,8.47300325236021,-0.032070424,0.007330383,0.014660766,342.85114,11.352626,24.25914,SIT
3911876232000,2.184959,3.90653424146481,-1.83037453780279,8.48143769497605,-0.032070424,0.0076358155,0.010079277,342.8639,11.35181,24.264473,SIT
3911881322000,2.190049,3.91021538829496,-1.84068285317984,8.47641655533016,-0.027794369,0.0027488936,0.011911872,342.87234,11.349079,24.272123,SIT
3911887088000,2.195815,3.9158163446597,-1.86308667863881,8.45961392017446,-0.028710667,0.0018325958,0.016493361,342.88135,11.347556,24.278427,SIT
3911891279000,2.200006,3.91421791016279,-1.86478121016279,8.4617130107606,-0.026267206,0.00030543262,0.0106901415,342.89276,11.3354025,24.283735,SIT
3911896316000,2.205043,3.90978138467764,-1.86034468467764,8.47058578377633,-0.034208454,-0.004276057,0.013744468,342.89954,11.328143,24.28915,SIT
3911901210000,2.209937,3.90511741885802,-1.86234006228396,8.46659492178954,-0.024740042,0.002443461,0.018936822,342.90524,11.318063,24.293934,SIT
3911906254000,2.214981,3.89983352264275,-1.8729078547145,8.44545944727631,-0.02687807,-0.007941248,0.010995574,342.91235,11.312068,24.305151,SIT
3911911242000,2.219969,3.9005370998651,-1.8770541,8.43994375785315,-0.04062254,-0.0012217305,0.014049901,342.9173,11.308055,24.306938,SIT
3911916247000,2.224974,3.90515570499133,-1.8770541,8.44456245943342,-0.03481932,0.0030543262,0.013744468,342.92462,11.2984495,24.312763,SIT
3911921749000,2.230476,3.91023294083638,-1.8770541,8.44963980131046,-0.0421497,0.0030543262,0.016798794,342.93762,11.295511,24.323128,SIT
3911926246000,2.234973,3.91438276446329,-1.8770541,8.45378971160146,-0.036651913,0.0125227375,0.01282817,342.95343,11.287082,24.329723,SIT
3911931237000,2.239964,3.91586346340702,-1.87495302681403,8.45316932440346,-0.03634648,0.01038471,0.0125227375,342.96188,11.287162,24.336287,SIT
3911936244000,2.244971,3.91352358942078,-1.87027327884156,8.44614955584834,-0.035430185,0.014966198,0.011301007,342.9727,11.285119,24.338427,SIT
3911941243000,2.24997,3.91118745399893,-1.86560100799785,8.43914100322061,-0.036957346,0.010995574,0.011301007,342.98193,11.283616,24.344147,SIT
3911946248000,2.254975,3.90884851465378,-1.86092312930757,8.43212403864734,-0.03726278,0.01160644,0.0125227375,342.99155,11.281632,24.34712,SIT
3911951240000,2.259967,3.90650906353173,-1.86121304587309,8.43090261505165,-0.028405234,0.00580322,0.008246681,343.0036,11.274153,24.354206,SIT
3911956248000,2.264975,3.90414995805214,-1.87064946779144,8.44033923403837,-0.029321533,0.010995574,0.01160644,343.01346,11.270515,24.357275,SIT
3911961254000,2.269981,3.90179179470733,-1.88008212117068,8.44977208440728,-0.03848451,0.01160644,0.008246681,343.02347,11.265283,24.362562,SIT
3911966242000,2.274969,3.8994421105755,-1.88948085769798,8.45917101721594,-0.0421497,-0.0015271631,0.0061086523,343.03125,11.259642,24.369799,SIT
3911971288000,2.280015,3.89581096450145,-1.89750733045097,8.46459834919321,-0.038179077,-0.002443461,0.013133603,343.03793,11.255243,24.372913,SIT
3911976220000,2.284947,3.88929699710385,-1.90184999805544,8.46025561357054,-0.02687807,0.004276057,0.0106901415,343.04755,11.24862,24.378017,SIT
3911981236000,2.289963,3.88267208622259,-1.9062666283685,8.45583891408082,-0.026572637,0.005497787,0.013439035,343.05594,11.251974,24.38297,SIT
3911986259000,2.294986,3.87603793005103,-1.91068942224061,8.4514160509355,-0.02565634,0.005497787,0.0061086523,343.0683,11.250726,24.386963,SIT
3911991784000,2.300511,3.86965762669327,-1.91473377112219,8.44716242653367,-0.03634648,0.0012217305,0.016493361,343.07678,11.253975,24.391945,SIT
3911996284000,2.305011,3.88255406559601,-1.90183728733167,8.45576023201995,-0.034513887,0.0018325958,0.015271631,343.09113,11.251509,24.396463,SIT
3912001209000,2.309936,3.89666850150623,-1.88772280229426,8.46517005246883,-0.040927973,0.010079277,0.018325957,343.1011,11.2568035,24.39733,SIT
3912006244000,2.314971,3.90218294685454,-1.86451816572733,8.45705272157174,-0.03634648,0.0033597588,0.015577064,343.11206,11.257827,24.402445,SIT
3912011280000,2.320007,3.9069684960508,-1.84059041974598,8.44748142329827,-0.04153884,0.008246681,0.01038471,343.12402,11.262969,24.401842,SIT
3912016231000,2.324958,3.8983326794148,-1.8432491602926,8.43773929136617,-0.03145956,0.014660766,0.011301007,343.13452,11.261606,24.403847,SIT
3912021578000,2.330305,3.88808703677343,-1.8483237,8.42778313048636,-0.031154128,0.009468411,0.015577064,343.14493,11.263836,24.407646,SIT
3912026221000,2.334948,3.88588927667062,-1.8483237,8.43217874248715,-0.032375857,-0.0027488936,0.011301007,343.15274,11.253738,24.410969,SIT
3912031547000,2.340274,3.88336821909846,-1.8483237,8.43722096293001,-0.036957346,0.004581489,0.011911872,343.15594,11.250147,24.407202,SIT
3912036257000,2.344984,3.88113874460261,-1.8483237,8.44168000504152,-0.02443461,0.011301007,0.019242255,343.15744,11.242905,24.406796,SIT
3912041226000,2.349953,3.87878667267695,-1.8483237,8.44638424713325,-0.030848695,0.011911872,0.019547688,343.1609,11.241124,24.406414,SIT
3912046242000,2.354969,3.88719235374426,-1.85261647687213,8.44889043326082,-0.030848695,0.010079277,0.01038471,343.16525,11.234369,24.405022,SIT
3912051205000,2.359932,3.89638348904037,-1.85721204452018,8.45118826507131,-0.03268129,0.013439035,0.010079277,343.16714,11.230998,24.401499,SIT
3912056248000,2.364975,3.90572277884457,-1.86188168942229,8.45352313628233,-0.03634648,0.008246681,0.0076358155,343.16833,11.229334,24.397486,SIT
3912061295000,2.370022,3.91506947637418,-1.86655503818709,8.45585985946338,-0.028099801,0.01160644,0.014049901,343.16776,11.226135,24.389774,SIT
3912066227000,2.374954,3.90993648418714,-1.86224416314036,8.44934352061641,-0.038179077,0.009468411,0.015882496,343.1686,11.227839,24.385595,SIT
3912071224000,2.379951,3.9010780882225,-1.85560036616688,8.44048517090101,-0.027794369,0.011911872,0.011301007,343.17004,11.222162,24.37935,SIT
3912076229000,2.384956,3.89220551031515,-1.84894593273636,8.43161263931695,-0.028099801,0.0027488936,0.013133603,343.16132,11.222783,24.377121,SIT
3912081369000,2.390096,3.88309361212458,-1.84211200909343,8.42250078869915,-0.03756821,0.009468411,0.013744468,343.15576,11.2225,24.370304,SIT
3912086264000,2.394991,3.87934905616209,-1.84171592464837,8.42172528081047,-0.03604105,0.0125227375,0.018936822,343.14752,11.220314,24.366817,SIT
3912091264000,2.399991,3.88091897190256,-1.84799558761024,8.4295748595128,-0.03268129,0.008246681,0.014660766,343.1421,11.219054,24.36422,SIT
3912096230000,2.404957,3.88247821221599,-1.85423254886397,8.43737106107996,-0.028710667,0.012217305,0.009468411,343.138,11.216617,24.356602,SIT
3912101230000,2.409957,3.88404812795646,-1.86051221182584,8.4452206397823,-0.03023783,0.010995574,0.009162978,343.1332,11.214885,24.351784,SIT
3912106222000,2.414949,3.88561553183174,-1.86678182732697,8.45305765915872,-0.024740042,0.017715093,0.0027488936,343.13394,11.204071,24.345425,SIT
3912111229000,2.419956,3.88718764545425,-1.87307028181699,8.46091822727124,-0.026267206,0.025045475,0.021685716,343.12695,11.198789,24.33785,SIT
3912116187000,2.424914,3.88671907694152,-1.87412505388304,8.46296889271342,-0.03848451,0.011301007,0.009773844,343.12894,11.197406,24.335495,SIT
3912121245000,2.429972,3.88257150827982,-1.86582991655964,8.45467358215601,-0.03726278,0.005497787,0.015577064,343.12088,11.197346,24.326946,SIT
3912126917000,2.435644,3.87792045856666,-1.85652781713332,8.44537128846648,-0.036957346,0.014966198,0.011911872,343.11926,11.199494,24.31851,SIT
3912131252000,2.439979,3.87436575114308,-1.84941840228615,8.4382617251477,-0.03023783,0.005192355,0.009468411,343.11395,11.200402,24.316818,SIT
3912136185000,2.444912,3.87032068269544,-1.84132826539087,8.4301714192996,-0.03268129,0.01740966,0.01160644,343.11063,11.203642,24.30648,SIT
3912141240000,2.449967,3.87067095595974,-1.8387469,8.43169238989934,-0.029626964,0.0033597588,0.015577064,343.1052,11.203627,24.306396,SIT
3912146252000,2.454979,3.87303363084344,-1.8387469,8.43759907710861,-0.03970624,0.00580322,0.0125227375,343.10327,11.207032,24.29879,SIT
3912151275000,2.460002,3.87540149116684,-1.8387469,8.44351872791711,-0.037873644,0.009162978,0.009162978,343.1006,11.2053995,24.294523,SIT
3912156272000,2.464999,3.87775709499643,-1.8387469,8.44940773749108,-0.030848695,0.0125227375,0.015271631,343.0962,11.205755,24.289312,SIT
3912161233000,2.46996,3.88009572829613,-1.8387469,8.45525432074032,-0.03176499,0.0106901415,0.013439035,343.09274,11.20065,24.284449,SIT
3912166257000,2.474984,3.88246406002314,-1.8387469,8.46117515005784,-0.030848695,0.002443461,0.016798794,343.08572,11.19482,24.279984,SIT
3912171241000,2.479968,3.88481353560582,-1.8387469,8.46704883901455,-0.03756821,0.011301007,0.012217305,343.07916,11.197731,24.269602,SIT
3912176296000,2.485023,3.88719648084468,-1.8387469,8.47300620211169,-0.03604105,0.008552114,0.01282817,343.06888,11.199227,24.264505,SIT
3912181261000,2.489988,3.8814047556213,-1.84010266887574,8.47276254718935,-0.03573562,0.0067195175,0.012217305,343.0586,11.200693,24.255938,SIT
3912186256000,2.494983,3.86961084142012,-1.84246145171598,8.46804512928994,-0.028710667,0.0033597588,0.011301007,343.0482,11.200014,24.248865,SIT
3912191239000,2.499966,3.85784526094675,-1.84481456781065,8.46333904452663,-0.027183503,0.008246681,0.014049901,343.03568,11.198581,24.238663,SIT
3912196268000,2.504995,3.8459710678501,-1.84718940642998,8.45858951607495,-0.03390302,0.009468411,0.007330383,343.02618,11.1963415,24.231386,SIT
3912201229000,2.509956,3.84499780871316,-1.85419646089145,8.45749557670741,-0.03940081,0.006414085,0.003970624,343.01514,11.194247,24.223907,SIT
3912206247000,2.514974,3.85421063064462,-1.86571248830578,8.45979883028996,-0.03023783,0.006414085,0.010079277,343.00378,11.190493,24.215385,SIT
3912211254000,2.519981,3.86340325707165,-1.87720327133956,8.46209703489097,-0.035430185,0.009468411,0.015271631,342.99536,11.192,24.204182,SIT
3912216229000,2.524956,3.87253713294033,-1.88862061617541,8.46438055154565,-0.029626964,0.008246681,0.016493361,342.98627,11.188596,24.1944,SIT
3912221205000,2.529932,3.87725499068549,-1.89485589068549,8.45373160324571,-0.036957346,0.014660766,0.010995574,342.97867,11.189785,24.182106,SIT
3912226221000,2.534948,3.87319470594202,-1.89079560594202,8.41718870137774,-0.03023783,0.008857546,0.013439035,342.9676,11.186955,24.173384,SIT
3912231576000,2.540303,3.86955042438671,-1.88652681512266,8.38085093582445,-0.030543262,0.0067195175,0.0125227375,342.96585,11.189924,24.170488,SIT
3912236260000,2.544987,3.88115836642169,-1.88420522671566,8.40638845678501,-0.039095376,0.0030543262,0.009468411,342.96356,11.193289,24.169703,SIT
3912241249000,2.549976,3.89352216292309,-1.88173246741538,8.4335888607287,-0.035430185,0.00030543262,0.013133603,342.95776,11.194804,24.1715,SIT
3912246905000,2.555632,3.90753892640513,-1.87892911471897,8.46442579893386,-0.027794369,0.00030543262,0.007330383,342.956501094847,11.1960821856828,24.1708149741327,SIT
3912251223000,2.55995,3.91466661514168,-1.87615514605667,8.48370258785858,-0.030543262,0.013744468,0.010995574,342.95554,11.197058,24.170292,SIT
3912256248000,2.564975,3.89355800035091,-1.86771170014036,8.47103759531538,-0.03940081,0.015882496,0.0070249503,342.95444,11.206645,24.17395,SIT
3912261238000,2.569965,3.87259641073778,-1.85932706429511,8.45846081665058,-0.036651913,0.005192355,0.006414085,342.95416,11.210178,24.177183,SIT
3912266261000,2.574988,3.8671074546364,-1.85021031854559,8.46208855579069,-0.03940081,0.007330383,0.01740966,342.95255,11.218144,24.175728,SIT
3912271180000,2.579907,3.86484176210081,-1.84114754840323,8.46888553876491,-0.04795292,0.007330383,0.013439035,342.9548,11.224864,24.17873,SIT
3912276225000,2.584952,3.86251803393613,-1.83185263574452,8.47585662620239,-0.04062254,0.0021380284,0.01985312,342.95724,11.232364,24.180685,SIT
3912281301000,2.590028,3.86018002716429,-1.82250060865718,8.48287054886495,-0.04153884,-0.0036651916,0.0143553335,342.96442,11.241958,24.183676,SIT
3912286991000,2.595718,3.86720589250911,-1.82540781938183,8.47536013436362,-0.032375857,-0.0106901415,0.017715093,342.96646,11.248533,24.187428,SIT
3912291205000,2.599932,3.875150894025,-1.83136657051875,8.46542888246875,-0.01985312,-0.0106901415,0.019242255,342.969066362652,11.2518945687825,24.1893282255199,SIT
3912296223000,2.60495,3.8846117430062,-1.83846220725465,8.45360282124225,-0.032070424,-0.011301007,0.0143553335,342.97217,11.2558975,24.191591,SIT
3912301254000,2.609981,3.89409710195885,-1.84557622646914,8.44174612255143,-0.022296581,-0.008552114,0.021991149,342.97568,11.259703,24.193453,SIT
3912306246000,2.614973,3.90369167426366,-1.84535806286817,8.44309839813122,-0.030543262,-0.018936822,0.014966198,342.98883,11.271628,24.202543,SIT
3912311226000,2.619953,3.91337935738371,-1.84051422130815,8.45278628356693,-0.021380283,-0.004886922,0.015577064,342.99896,11.277964,24.202873,SIT
3912316537000,2.625264,3.92182972487146,-1.84693977478576,8.44812812521424,-0.027183503,-0.0009162979,0.021685716,343.00372,11.292048,24.213915,SIT
3912321261000,2.629988,3.92847594247099,-1.85801680411831,8.43705109588169,-0.022296581,-0.00030543262,0.022296581,343.01056,11.300032,24.221964,SIT
3912326221000,2.634948,3.93545418956956,-1.86964721594927,8.42542068405073,-0.034208454,0.008552114,0.03023783,343.01807,11.310144,24.228842,SIT
3912331259000,2.639986,3.94254217523138,-1.88146052538563,8.41360737461437,-0.03726278,0.007330383,0.019547688,343.03024,11.314337,24.239141,SIT
3912336250000,2.644977,3.94081220498053,-1.88179870498053,8.40602085203296,-0.030848695,0.007330383,0.018936822,343.0374,11.321003,24.245266,SIT
3912341282000,2.650009,3.93208442129856,-1.87307092129856,8.40165686905732,-0.03268129,0.008857546,0.022602014,343.04636,11.329543,24.251411,SIT
3912346271000,2.654998,3.91923648966184,-1.8765452068599,8.40067361545894,-0.044593163,-0.0012217305,0.028405234,343.05585,11.334966,24.268808,SIT
3912351255000,2.659982,3.89874018426194,-1.90216564211487,8.40579779881911,-0.04153884,-0.0067195175,0.02321288,343.0677,11.33601,24.28447,SIT
3912356244000,2.664971,3.8789148648951,-1.91999576755245,8.40611976783217,-0.040927973,-0.0030543262,0.01740966,343.08344,11.346209,24.300371,SIT
3912361262000,2.669989,3.85971151528472,-1.92959744235764,8.40131883016983,-0.028405234,0.0067195175,0.01863139,343.09827,11.352392,24.31535,SIT
3912366242000,2.674969,3.86137275784021,-1.93796390735206,8.40115931958558,-0.027488936,0.010995574,0.023823744,343.11362,11.363136,24.326954,SIT
3912371282000,2.680009,3.88541493357242,-1.94517656007173,8.40596785515043,-0.03940081,0.0061086523,0.0076358155,343.13483,11.371268,24.339191,SIT
3912376240000,2.684967,3.9090659469217,-1.95227186407651,8.4106981566049,-0.027488936,0.007941248,0.014966198,343.14856,11.377147,24.343441,SIT
3912381303000,2.69003,3.93321783893206,-1.95951743167962,8.41552863588364,-0.03023783,0.014049901,0.010995574,343.17026,11.386282,24.349157,SIT
3912386210000,2.694937,3.94753641798833,-1.95000125432544,8.42368997493992,-0.044593163,0.0061086523,0.010995574,343.18732,11.396452,24.357235,SIT
3912391290000,2.700017,3.95171167923103,-1.92077438202884,8.43621558427738,-0.043676864,-0.0021380284,0.008246681,343.20645,11.402305,24.363789,SIT
3912396232000,2.704959,3.95367759220954,-1.89312048441907,8.44643527199463,-0.025045475,-0.002443461,0.0061086523,343.22006,11.408548,24.377289,SIT
3912401229000,2.709956,3.94219930630337,-1.87016391260674,8.44413956687134,-0.01740966,0.018020526,0.005192355,343.23462,11.416862,24.386824,SIT
3912406311000,2.715038,3.93052577238799,-1.84681684477598,8.44180481133071,-0.021991149,0.026267206,0.007330383,343.24594,11.41638,24.396519,SIT
3912411256000,2.719983,3.91916693232275,-1.8240991646455,8.43953299587451,-0.027488936,0.037873644,0.0061086523,343.25986,11.413762,24.399529,SIT
3912416605000,2.725332,3.90742950762375,-1.80062431524751,8.43799776668604,-0.036651913,0.044898596,0.01740966,343.2693,11.415125,24.400387,SIT
3912421287000,2.730014,3.90960128799767,-1.80496787599535,8.45754374469631,-0.047647487,0.04520403,0.019242255,343.28207,11.417118,24.400404,SIT
3912426196000,2.734923,3.91187836400271,-1.80952202800542,8.47803738118764,-0.04734206,0.03176499,0.016493361,343.29272,11.410506,24.39558,SIT
3912431279000,2.740006,3.91423615119636,-1.81423760239272,8.49925741669088,-0.03756821,0.020158553,0.01985312,343.30096,11.405314,24.389803,SIT
3912436226000,2.744953,3.91653085378282,-1.81882700756563,8.51990969204689,-0.03848451,0.015271631,0.020158553,343.3104,11.402203,24.386312,SIT
3912441255000,2.749982,3.90890618334825,-1.83961284162936,8.50734245031334,-0.032375857,0.0012217305,0.021991149,343.3127,11.397583,24.385998,SIT
3912446242000,2.754969,3.89940464120163,-1.86336669699592,8.48833946523426,-0.028710667,-0.005497787,0.015271631,343.3177,11.392924,24.38556,SIT
3912451238000,2.759965,3.89187971739303,-1.86551707246434,8.48309073152734,-0.01863139,-0.0012217305,0.010079277,343.3228,11.385453,24.383205,SIT
3912456189000,2.764916,3.88483513486529,-1.86316887828843,8.4807424883122,-0.021685716,0.00061086525,0.010995574,343.3274,11.380557,24.383392,SIT
3912461272000,2.769999,3.87760273474643,-1.86075807824881,8.47833163792591,-0.02107485,-0.004886922,0.013439035,343.33093,11.374857,24.384703,SIT
3912466329000,2.775056,3.87040732900158,-1.85835960966719,8.47593311925515,-0.021380283,-0.0021380284,0.009162978,343.33685,11.369652,24.38354,SIT
3912471272000,2.779999,3.85376778490528,-1.86934716132104,8.48692090037085,-0.024129177,0.010995574,0.0106901415,343.3371,11.359993,24.378979,SIT
3912476205000,2.784932,3.83482727998396,-1.88355254001203,8.50112657572417,-0.020158553,0.016798794,0.01160644,343.33847,11.348465,24.376032,SIT
3912481265000,2.789992,3.83404434417311,-1.88330935582689,8.49424015938125,-0.029932396,0.014049901,0.010995574,343.341409458055,11.3408656087602,24.369526218634,SIT
3912486981000,2.795708,3.83880153447467,-1.87855216552533,8.47996829043191,-0.03634648,0.01160644,0.01038471,343.34473,11.332281,24.362177,SIT
3912491285000,2.800012,3.82769955409836,-1.86949410403531,8.46791410928962,-0.03604105,0.013439035,0.010995574,343.34952,11.325593,24.349962,SIT
3912496242000,2.804969,3.80275609262295,-1.85452808965952,8.45294830327869,-0.032986723,0.017715093,0.015882496,343.35318,11.320458,24.337757,SIT
3912501794000,2.810521,3.79914646608381,-1.85842019369913,8.42991651050146,-0.042760566,0.011911872,0.010995574,343.34567,11.323342,24.323545,SIT
3912506250000,2.814977,3.8077234264697,-1.8712854999397,8.40847433343383,-0.04520403,0.01985312,0.015882496,343.33524,11.325256,24.303934,SIT
3912511223000,2.81995,3.80875832983425,-1.86299974917127,8.41010342196133,-0.043676864,0.004581489,0.0106901415,343.3233,11.327386,24.287083,SIT
3912516239000,2.824966,3.80401906101026,-1.8393034050513,8.42906039828335,-0.03848451,0.0061086523,0.015271631,343.30908,11.330788,24.263142,SIT
3912521255000,2.829982,3.80988041553027,-1.82654076148991,8.43453760657932,-0.04337143,0.003970624,0.011301007,343.2949,11.336822,24.249517,SIT
3912526247000,2.834974,3.82359583647318,-1.82196895450894,8.42996570412164,-0.046120327,-0.004581489,0.014966198,343.2771,11.342271,24.237043,SIT
3912531272000,2.839999,3.83310231766149,-1.82197281766149,8.43710826941946,-0.03604105,0.0018325958,0.021380283,343.26187,11.339336,24.217999,SIT
3912536327000,2.845054,3.83805026573998,-1.82692076573998,8.45690047506132,-0.04520403,-0.0027488936,0.015882496,343.24826,11.341133,24.205454,SIT
3912541240000,2.849967,3.84946123599781,-1.8337509179989,8.4636075431681,-0.027794369,0.004886922,0.016493361,343.23364,11.340344,24.191233,SIT
3912546220000,2.854947,3.86690863457106,-1.84247461728553,8.45924560243278,-0.032375857,0.0076358155,0.01740966,343.22034,11.3468485,24.180368,SIT
3912551232000,2.859959,3.87704459383775,-1.85457252464899,8.45007220797582,-0.028710667,0.0076358155,0.018325957,343.206,11.348048,24.16678,SIT
3912556231000,2.864958,3.87237665085803,-1.87324429656786,8.43140053354134,-0.02687807,0.01038471,0.012217305,343.19434,11.350057,24.152527,SIT
3912561228000,2.869955,3.86692067571443,-1.88452157571443,8.41520150888496,-0.021685716,0.016187929,0.02076942,343.17572,11.353268,24.140596,SIT
3912566219000,2.874946,3.85947011838304,-1.87707101838304,8.40526722498181,-0.032986723,0.027794369,0.02107485,343.16245,11.3585,24.127554,SIT
3912571909000,2.880636,3.85097609489764,-1.86857699489764,8.39394162381794,-0.03268129,0.022602014,0.021380283,343.14587,11.356093,24.119596,SIT
3912576249000,2.884976,3.84449734939208,-1.86209824939208,8.38530311607607,-0.04337143,0.022907447,0.027488936,343.12894,11.360215,24.106943,SIT
3912581230000,2.889957,3.84850180304047,-1.85995105076012,8.38380718716683,-0.04886922,0.03176499,0.032986723,343.11273,11.362867,24.093792,SIT
3912586237000,2.894964,3.86743607257651,-1.86468461814413,8.39327451964462,-0.040927973,0.027183503,0.03359759,343.09567,11.364826,24.084675,SIT
3912591178000,2.899905,3.8841278159381,-1.87115797729207,8.40070037707931,-0.053145275,0.02443461,0.032375857,343.07516,11.36992,24.069424,SIT
3912596241000,2.904968,3.89819570909091,-1.88053657272727,8.40538977272727,-0.047647487,0.020463986,0.03145956,343.0545,11.368454,24.05632,SIT
3912601184000,2.909911,3.91044090559749,-1.88430312080188,8.41386843618273,-0.05100725,0.02321288,0.026267206,343.03918,11.374317,24.047756,SIT
3912606252000,2.914979,3.91995668295265,-1.87716628778551,8.43052089751005,-0.03756821,0.020463986,0.03145956,343.0207,11.375382,24.041592,SIT
3912611190000,2.919917,3.92922836972846,-1.87021252270366,8.44674620414665,-0.034513887,0.008246681,0.027794369,343.0067,11.37464,24.041975,SIT
3912616258000,2.924985,3.93874414708362,-1.86307568968729,8.46339866547397,-0.027488936,0.008246681,0.02687807,342.9912,11.370429,24.039454,SIT
3912621201000,2.929928,3.94335341190454,-1.85560951190454,8.47318308367135,-0.025350908,0.0070249503,0.028099801,342.97556,11.366683,24.040913,SIT
3912626236000,2.934963,3.93425631012169,-1.84651241012169,8.46408626686162,-0.013439035,0.01282817,0.034513887,342.95926,11.359297,24.040258,SIT
3912631268000,2.939995,3.92460355160193,-1.84377956896367,8.45191739412923,-0.017715093,0.014049901,0.036651913,342.94516,11.359668,24.041765,SIT
3912636289000,2.945016,3.91169364123859,-1.87820604153392,8.42179409020942,-0.016493361,0.021380283,0.036957346,342.93073,11.35619,24.039806,SIT
3912641923000,2.95065,3.89882348166251,-1.91642448166251,8.38981455193185,-0.025045475,0.017715093,0.03756821,342.91617,11.355936,24.039663,SIT
3912646222000,2.954949,3.92008017034679,-1.93768117034679,8.40044311823423,-0.029321533,0.02443461,0.043982297,342.9012,11.35509,24.034407,SIT
3912651274000,2.960001,3.94506011713278,-1.96266111713278,8.41293335246536,-0.03176499,0.029626964,0.040927973,342.8893,11.355549,24.034065,SIT
3912656245000,2.964972,3.95804771303644,-1.96999568696356,8.43214656518219,-0.018936822,0.028405234,0.04337143,342.87405,11.354533,24.033072,SIT
3912661227000,2.969954,3.96287682412955,-1.96516657587045,8.45629212064777,-0.032986723,0.03023783,0.028405234,342.86588,11.358679,24.031221,SIT
3912666226000,2.974953,3.9532591798722,-1.97189951509585,8.47166722933307,-0.029626964,0.021991149,0.023823744,342.85126,11.359167,24.036856,SIT
3912671248000,2.979975,3.93405203546326,-1.98630487340256,8.48127050069888,-0.037873644,0.01282817,0.01985312,342.84128,11.364551,24.043125,SIT
3912676244000,2.984971,3.92927968388155,-1.98082026447381,8.48783994212405,-0.022296581,0.010079277,0.017104227,342.83804,11.363514,24.051193,SIT
3912681353000,2.99008,3.93399926246744,-1.96194195013022,8.49255961927269,-0.014660766,0.0030543262,0.013133603,342.8355,11.365935,24.063095,SIT
3912686226000,2.994953,3.94495287340613,-1.94034066669602,8.48796413772455,-0.022907447,0.012217305,0.011911872,342.83524,11.369553,24.067167,SIT
3912691252000,2.999979,3.96190708150757,-1.91490931028531,8.47524865868263,-0.027794369,0.012217305,0.009162978,342.83545,11.369714,24.075872,SIT
3912696240000,3.004967,3.9675364969161,-1.90031069613131,8.47410384945286,-0.025350908,0.011911872,0.005192355,342.83807,11.367735,24.082348,SIT
3912701234000,3.009961,3.94110423251907,-1.91617010997016,8.50582212512435,-0.035430185,0.024129177,0.01038471,342.83948,11.371073,24.084732,SIT
3912706232000,3.014959,3.91698201100755,-1.91352763335109,8.51955460355082,-0.036651913,0.022907447,0.006414085,342.8409,11.367205,24.094522,SIT
3912711273000,3.02,3.89555429294274,-1.8878143269241,8.51098378482024,-0.033292156,0.015577064,-0.0018325958,342.84247,11.364907,24.102407,SIT
3912716222000,3.024949,3.8795117537449,-1.86611986938264,8.49968023127548,-0.035430185,0.010995574,0.0030543262,342.84427,11.36604,24.103035,SIT
3912721259000,3.029986,3.88425006145081,-1.85901240782378,8.47598869274594,-0.03481932,0.0070249503,-0.00061086525,342.85062,11.36364,24.106459,SIT
3912726211000,3.034938,3.88890840962625,-1.85202488556063,8.45269695186877,-0.0421497,0.0015271631,0.00030543262,342.85724,11.36212,24.107422,SIT
3912731288000,3.040015,3.8936843453465,-1.84486098198026,8.42881727326752,-0.032986723,0.0027488936,0.00030543262,342.861231320264,11.3595185326065,24.1075951603321,SIT
3912736209000,3.044936,3.89503713933649,-1.8382022478673,8.41116026066351,-0.03756821,0.0027488936,0.0009162979,342.8651,11.356997,24.107763,SIT
3912741256000,3.049983,3.87166248530806,-1.83352731706161,8.43453491469194,-0.04062254,0.0070249503,0.007330383,342.87085,11.357132,24.108358,SIT
3912746345000,3.055072,3.84913765666199,-1.83027821500701,8.45447414165498,-0.041233405,0.017104227,0.0061086523,342.88028,11.352444,24.11482,SIT
3912751254000,3.059981,3.83971819939892,-1.84440740090162,8.4309254984973,-0.043066,0.021380283,0.010995574,342.8856,11.350471,24.120684,SIT
3912756300000,3.065027,3.83136143172208,-1.85885844925026,8.4092352896526,-0.040317107,0.01740966,0.014660766,342.89865,11.352589,24.121292,SIT
3912761228000,3.069955,3.84015242928192,-1.8720449685387,8.4202240366024,-0.04642576,0.013744468,0.013133603,342.91193,11.357294,24.120554,SIT
3912766197000,3.074924,3.84901656622893,-1.88534119709882,8.43130420778616,-0.04153884,0.012217305,0.0070249503,342.91922,11.359131,24.118345,SIT
3912771248000,3.079975,3.85802698195027,-1.89885684420229,8.44256722743783,-0.03573562,0.021685716,0.016187929,342.92273,11.363762,24.11322,SIT
3912776224000,3.084951,3.86690360610971,-1.91217180361367,8.45366300763714,-0.05100725,0.013744468,0.011911872,342.93082,11.370154,24.114555,SIT
3912781283000,3.09001,3.87091686429918,-1.91724826429918,8.45443409629592,-0.046120327,0.003970624,0.0106901415,342.93564,11.371137,24.113052,SIT
3912786188000,3.094915,3.87331021040404,-1.91964161040404,8.4520407002089,-0.03268129,0.007330383,0.0143553335,342.94058,11.373726,24.110043,SIT
3912791362000,3.100089,3.87583481239109,-1.92216621239109,8.44951604549855,-0.03481932,0.005497787,0.014966198,342.9364,11.381201,24.109192,SIT
3912796228000,3.104955,3.87820912883273,-1.92454052883273,8.44714167947216,-0.04337143,0.00061086525,0.017104227,342.9308,11.387347,24.108042,SIT
3912801253000,3.10998,3.87448342834936,-1.93318494330129,8.43849708447535,-0.035430185,-0.005497787,0.013133603,342.9287,11.385509,24.109459,SIT
3912806188000,3.114915,3.86964997488239,-1.94285185023522,8.42882997565964,-0.031154128,0.0009162979,0.01038471,342.9262,11.387163,24.108543,SIT
3912811231000,3.119958,3.8606503,-1.9357121,8.4527291875,-0.027488936,0.015271631,0.010995574,342.92297,11.387495,24.108318,SIT
3912816196000,3.124923,3.85121601190476,-1.92627781190476,8.48103215029762,-0.03573562,0.016493361,0.016798794,342.91855,11.39014,24.109787,SIT
3912821245000,3.129972,3.8389745081761,-1.9285721639413,8.47778329979036,-0.028099801,0.019242255,0.0125227375,342.91205,11.399193,24.103863,SIT
3912826253000,3.13498,3.8264062129979,-1.93276159566737,8.46940469881202,-0.028710667,0.013133603,0.017104227,342.90085,11.413805,24.099392,SIT
3912831228000,3.139955,3.81545996015673,-1.9259859402351,8.47158386172407,-0.033292156,0.013744468,0.025045475,342.8991,11.427238,24.091196,SIT
3912836262000,3.144989,3.80551778420293,-1.91107267630439,8.48152572623221,-0.025045475,0.009773844,0.011911872,342.90182,11.4351,24.08717,SIT
3912841247000,3.149974,3.80751714490716,-1.90025982624842,8.47952642815937,-0.02076942,0.021380283,0.016187929,342.89856,11.44837,24.075605,SIT
3912846260000,3.154987,3.81617200310078,-1.89160492286822,8.47087184108527,-0.03359759,0.013133603,0.013439035,342.89996,11.461184,24.072086,SIT
3912851263000,3.15999,3.82686996101774,-1.88472291299409,8.4716218813257,-0.027183503,0.0018325958,0.010995574,342.90308,11.466272,24.063654,SIT
3912856325000,3.165052,3.84052438640503,-1.88017143786499,8.48527611660877,-0.02687807,0.005497787,0.012217305,342.90646,11.4760275,24.053473,SIT
3912861253000,3.16998,3.84536197599484,-1.87404448399656,8.49161832114433,-0.028405234,0.002443461,0.011911872,342.909,11.483161,24.05095,SIT
3912866262000,3.174989,3.8298843922564,-1.8637260948376,8.48129971649817,-0.02443461,-0.0036651916,0.01740966,342.90942,11.489364,24.047895,SIT
3912871203000,3.17993,3.83318632828243,-1.85388705723919,8.47146068296311,-0.02321288,-0.004276057,0.013744468,342.90543,11.489456,24.042427,SIT
3912876227000,3.184954,3.86181416041253,-1.84434444652916,8.46191837118207,-0.020463986,0.0033597588,0.018020526,342.89764,11.489698,24.035706,SIT
3912881255000,3.189982,3.8766685272126,-1.84649999114958,8.4524443734682,-0.02107485,0.0036651916,0.008246681,342.89444,11.488853,24.029638,SIT
3912886209000,3.194936,3.87205430165337,-1.8649568933865,8.44321572962459,-0.01863139,-0.003970624,0.01038471,342.8865,11.488413,24.022942,SIT
3912891179000,3.199906,3.87136007668628,-1.88016087702518,8.437167,-0.027794369,-0.01160644,0.013439035,342.87872,11.489597,24.02242,SIT
3912896910000,3.205637,3.87911032015062,-1.8904945619534,8.437167,-0.02107485,-0.01282817,0.016798794,342.87027,11.486364,24.022184,SIT
3912901205000,3.209932,3.88491860765357,-1.89823896550718,8.437167,-0.031154128,-0.005192355,0.0106901415,342.8626,11.491313,24.022154,SIT
3912906243000,3.21497,3.89173168156272,-1.90732308776653,8.437167,-0.025045475,-0.0015271631,0.014049901,342.8509,11.491781,24.02283,SIT
3912911224000,3.219951,3.89972035554686,-1.91830133332029,8.43569705380552,-0.03726278,-0.002443461,0.014049901,342.8408,11.500224,24.02232,SIT
3912916227000,3.224954,3.91846922285267,-1.94642463427901,8.42163559909998,-0.041233405,-0.010995574,0.0076358155,342.8316,11.504434,24.023256,SIT
3912921282000,3.230009,3.93383653497729,-1.97096297914774,8.40732144419208,-0.035124753,-0.007330383,0.008246681,342.82065,11.506276,24.02476,SIT
3912926236000,3.234963,3.90304908059702,-1.94530676716418,8.39192739552239,-0.021685716,-0.0070249503,0.0036651916,342.8126,11.505769,24.030268,SIT
3912931259000,3.239986,3.88174815179055,-1.918655485485,8.38494158631758,-0.018020526,-0.006414085,0.008857546,342.7971,11.510934,24.038544,SIT
3912936248000,3.244975,3.89612632067409,-1.88989909767279,8.40890520112348,-0.028710667,0.006414085,0.0125227375,342.7845,11.515616,24.043583,SIT
3912941242000,3.249969,3.90837313838918,-1.86954917677837,8.4234462680776,-0.03970624,0.007330383,0.013439035,342.77405,11.517406,24.047674,SIT
3912946223000,3.25495,3.91304705969038,-1.87889701938076,8.40475068048207,-0.04337143,-0.0009162979,0.01160644,342.76373,11.520143,24.05076,SIT
3912951245000,3.259972,3.91858380102564,-1.88788325512821,8.3934575025641,-0.04337143,0.01038471,0.019547688,342.76062,11.525371,24.051352,SIT
3912956246000,3.264973,3.92785203069182,-1.89483445157233,8.41662807672956,-0.042760566,0.009162978,0.015271631,342.7603,11.529552,24.058468,SIT
3912961243000,3.26997,3.93711284725689,-1.90178008817126,8.43978011814223,-0.04734206,0.006414085,0.011911872,342.75583,11.537489,24.064617,SIT
3912966742000,3.275469,3.94730400801161,-1.90942348534107,8.46525802002903,-0.042455133,0.0036651916,0.010995574,342.75186,11.542369,24.071104,SIT
3912971410000,3.280137,3.954562966415,-1.91437404618589,8.48406366336891,-0.027794369,0.01282817,0.0067195175,342.75302,11.544586,24.076645,SIT
3912976285000,3.285012,3.94645971205415,-1.90221912233793,8.47190895105441,-0.032375857,0.011911872,0.010995574,342.75095,11.551285,24.085064,SIT
3912981269000,3.289996,3.93817527723683,-1.88979242685932,8.45948247183893,-0.03848451,0.008857546,0.009468411,342.7547,11.555581,24.09271,SIT
3912986275000,3.295002,3.93247917995188,-1.88124826992783,8.45452675250601,-0.029932396,0.013133603,0.01282817,342.75604,11.558188,24.097792,SIT
3912991181000,3.299908,3.92776949863673,-1.87418374795509,8.45217186267041,-0.032986723,0.012217305,0.01282817,342.7582,11.564624,24.105259,SIT
3912996262000,3.304989,3.92289182012831,-1.86686723019246,8.44973297248396,-0.038179077,0.020463986,0.0106901415,342.75897,11.559373,24.10711,SIT
3913001190000,3.309917,3.918161019166,-1.859771028749,8.44736752260425,-0.0421497,0.013744468,0.014966198,342.7566,11.555567,24.112898,SIT
3913006284000,3.315011,3.90843958153272,-1.86355011231152,8.45239373029691,-0.040317107,0.008246681,0.010995574,342.75803,11.55051,24.116644,SIT
3913011262000,3.319989,3.89732346687393,-1.87096085541738,8.45980462816726,-0.034513887,0.00030543262,0.0015271631,342.75916,11.545406,24.12295,SIT
3913016223000,3.32495,3.88626346177585,-1.87667007235517,8.46397786177585,-0.018325957,0.00061086525,0.008552114,342.75818,11.537304,24.126234,SIT
3913021281000,3.330008,3.87507445355262,-1.87443227071052,8.45278885355262,-0.020463986,0.0027488936,0.006414085,342.76236,11.530491,24.132206,SIT
3913026259000,3.334986,3.86406241659429,-1.87222986331886,8.44177681659429,-0.015577064,0.01282817,0.009773844,342.76685,11.520937,24.13312,SIT
3913031268000,3.339995,3.85298180327081,-1.87001374065416,8.43069620327081,-0.028405234,0.022907447,0.012217305,342.77225,11.516471,24.1335,SIT
3913036310000,3.345037,3.84182818930056,-1.86778301786011,8.41954258930056,-0.03390302,0.028405234,0.0076358155,342.78152,11.506236,24.134056,SIT
3913041278000,3.350005,3.84447386482548,-1.8674773,8.42844966206369,-0.036651913,0.026267206,0.013439035,342.7869,11.500396,24.13309,SIT
3913046424000,3.355151,3.84949625593885,-1.8674773,8.44100563984713,-0.043066,0.023823744,0.015271631,342.79504,11.496122,24.131199,SIT
3913051291000,3.360018,3.85424634873885,-1.8674773,8.45288087184713,-0.04428773,0.015577064,0.012217305,342.8035,11.491431,24.129307,SIT
3913056825000,3.365552,3.85927758415039,-1.86782853169923,8.46624922069664,-0.045814894,0.004886922,0.01038471,342.81055,11.488933,24.128624,SIT
3913061226000,3.369953,3.85539373814965,-1.8755962237007,8.4740166693697,-0.03268129,0.0076358155,0.011911872,342.81772,11.483049,24.126432,SIT
3913066301000,3.375028,3.85091509273867,-1.88455351452267,8.48297367959823,-0.029932396,0.014049901,0.01038471,342.8282,11.476791,24.127335,SIT
3913071250000,3.379977,3.85568425388598,-1.88314618766841,8.48388940496479,-0.02443461,0.005497787,0.008857546,342.83716,11.4668665,24.131433,SIT
3913076225000,3.384952,3.86334440051449,-1.87855009969131,8.48235734364449,-0.034513887,0.0070249503,0.009162978,342.84692,11.460622,24.130823,SIT
3913081348000,3.390075,3.87123242688189,-1.87381728387086,8.48077970542461,-0.030848695,0.015271631,0.007330383,342.85782,11.449995,24.129345,SIT
3913087025000,3.395752,3.8799734625422,-1.86857266247468,8.47903146178334,-0.0290161,0.008552114,0.009773844,342.86618,11.443242,24.131247,SIT
3913091239000,3.399966,3.88646187618895,-1.86467961428663,8.47773375195344,-0.03176499,0.004886922,0.013439035,342.86993,11.434277,24.127266,SIT
3913096269000,3.404996,3.89420670785556,-1.86003271528667,8.47618475327181,-0.030848695,0.006414085,0.008552114,342.87537,11.42351,24.124144,SIT
3913101244000,3.409971,3.89233185045696,-1.86604332431456,8.4646169575983,-0.030848695,0.007941248,0.011911872,342.8743,11.417899,24.119823,SIT
3913106249000,3.414976,3.88214441496281,-1.88132447755579,8.44424219298618,-0.021380283,0.011301007,0.0125227375,342.8758,11.408914,24.115131,SIT
3913111257000,3.419984,3.88167972081248,-1.88355797918752,8.44023998498675,-0.024740042,0.005497787,0.0061086523,342.87625,11.40185,24.117168,SIT
3913116252000,3.424979,3.88637367783338,-1.87886402216662,8.44493404003533,-0.03726278,0.008552114,0.015577064,342.8725,11.397015,24.11481,SIT
3913121248000,3.429975,3.87438948533358,-1.87153645413343,8.449502880548,-0.034208454,0.008857546,0.014049901,342.87225,11.38918,24.115925,SIT
3913126249000,3.434976,3.8519190073379,-1.86254826293516,8.45399707000094,-0.03604105,0.009468411,0.013744468,342.86902,11.387255,24.115475,SIT
3913131239000,3.439966,3.8524397746467,-1.86761263971736,8.46117691773888,-0.04062254,0.008246681,0.01160644,342.86197,11.377921,24.113865,SIT
3913136230000,3.444957,3.87764427201012,-1.8877762376081,8.4712584008648,-0.029626964,0.015882496,0.016798794,342.85352,11.366217,24.109316,SIT
3913141246000,3.449973,3.88612394457743,-1.8962077,8.47272780710772,-0.03481932,0.0027488936,0.0125227375,342.85403,11.35335,24.109514,SIT
3913146240000,3.454967,3.88261219340627,-1.8962077,8.46804549665908,-0.035124753,-0.007941248,0.008552114,342.85355,11.337572,24.106743,SIT
3913151212000,3.459939,3.87911591250459,-1.8962077,8.46338381312872,-0.01985312,-0.0018325958,0.009468411,342.85004,11.321617,24.106388,SIT
3913156248000,3.464975,3.87557462718261,-1.8962077,8.45866212401792,-0.027794369,0.0021380284,0.008246681,342.8475,11.311538,24.10992,SIT
3913161230000,3.469957,3.87207131434026,-1.8962077,8.45399106461561,-0.02321288,0.008246681,0.012217305,342.84628,11.296839,24.112095,SIT
3913166282000,3.475009,3.86851877791321,-1.8962077,8.4492543741097,-0.03145956,-0.0036651916,0.01282817,342.84543,11.287451,24.118414,SIT
3913171263000,3.47999,3.86501616826492,-1.8962077,8.44458425229459,-0.02687807,0.003970624,0.009468411,342.84622,11.273983,24.117544,SIT
3913176249000,3.484976,3.8615100426463,-1.8962077,8.43990944254351,-0.03023783,0.013744468,0.0106901415,342.84473,11.265721,24.119009,SIT
3913181211000,3.489938,3.86330167930558,-1.89235922069442,8.44486391842573,-0.032070424,0.004886922,0.009468411,342.8457,11.248921,24.125114,SIT
3913186289000,3.495016,3.87289548289603,-1.88276541710397,8.46405142542908,-0.031154128,0.0012217305,0.004886922,342.84824,11.232619,24.127146,SIT
3913191180000,3.499907,3.87688971381677,-1.88392245369775,8.47804968306378,-0.026572637,0.0106901415,0.005192355,342.85004,11.217231,24.126778,SIT
3913196238000,3.504965,3.87224034448337,-1.90251995530547,8.48502388270864,-0.02687807,0.0067195175,0.0027488936,342.8528,11.202559,24.131544,SIT
3913201182000,3.509909,3.86769576520612,-1.92069829614148,8.49184089398666,-0.02321288,0.0021380284,0.004581489,342.85367,11.191508,24.13217,SIT
3913206266000,3.514993,3.86302249638624,-1.93939139581994,8.49885094360993,-0.026267206,0.0012217305,-0.0009162979,342.85742,11.181503,24.133453,SIT
3913211200000,3.519927,3.85994713776469,-1.95144587748006,8.50321712962827,-0.027488936,0.0021380284,0.002443461,342.85938,11.166679,24.13607,SIT
3913216227000,3.524954,3.86230967358116,-1.94081445397129,8.4984920826647,-0.025961773,0.0018325958,-0.0009162979,342.86475,11.151036,24.139915,SIT
3913221877000,3.530604,3.86496500028953,-1.92886546992026,8.4931814569746,-0.03023783,0.0012217305,0.005497787,342.8676,11.141451,24.14172,SIT
3913226236000,3.534963,3.86701359659428,-1.91964677585327,8.48908428575635,-0.01863139,-0.0067195175,0.0033597588,342.87344,11.126369,24.146282,SIT
3913231613000,3.54034,3.86954062167587,-1.90827514979266,8.48403026198013,-0.027794369,-0.0106901415,0.0033597588,342.87424,11.120611,24.147882,SIT
3913236253000,3.54498,3.87172127936204,-1.89846217881978,8.47966896937799,-0.019547688,-0.014966198,0.00580322,342.87427,11.107774,24.151697,SIT
3913241332000,3.550059,3.87410825358361,-1.88772078236045,8.4748950458594,-0.025350908,-0.014660766,0.008246681,342.87424,11.101329,24.155241,SIT
3913246221000,3.554948,3.87640593363268,-1.87738121014354,8.4702997097534,-0.027488936,-0.009162978,0.009468411,342.87378,11.092325,24.158333,SIT
3913251328000,3.560055,3.87834612315593,-1.86734696157797,8.46550697656802,-0.020158553,-0.015577064,-0.0027488936,342.8799,11.080402,24.167448,SIT
3913256300000,3.565027,3.87528931827695,-1.86581855913847,8.46092167349297,-0.014660766,-0.0036651916,0.015882496,342.87762,11.073663,24.1678,SIT
3913261200000,3.569927,3.87227677927714,-1.86431228963857,8.45640277062335,-0.016798794,-0.002443461,0.0125227375,342.88535,11.059427,24.177477,SIT
3913266226000,3.574953,3.86918677498877,-1.86276728749438,8.45176766739424,-0.022296581,0.003970624,0.01160644,342.88754,11.047658,24.180954,SIT
3913271235000,3.579962,3.86610722236631,-1.86122751118315,8.4471482419914,-0.026267206,0.0033597588,0.014966198,342.88895,11.036639,24.18586,SIT
3913276238000,3.584965,3.86303135856712,-1.85968957928356,8.44253434993901,-0.031154128,0.011911872,0.02076942,342.89075,11.0278845,24.186207,SIT
3913281276000,3.590003,3.85993397663221,-1.85814088831611,8.43788818000899,-0.0290161,0.007941248,0.009162978,342.89587,11.017004,24.190992,SIT
3913286213000,3.59494,3.86532303389881,-1.86377033389881,8.44499340433692,-0.02565634,0.013133603,0.011911872,342.89233,11.014983,24.187338,SIT
3913291206000,3.599933,3.87237672358755,-1.87082402358755,8.45439827481929,-0.026267206,0.009773844,0.01282817,342.89206,11.011966,24.188002,SIT
3913296250000,3.604977,3.87950246177902,-1.87794976177902,8.46389920947042,-0.030543262,0.009162978,0.009468411,342.8932,11.00879,24.18607,SIT
3913301259000,3.609986,3.8865787549196,-1.88502605491961,8.47333421773123,-0.029321533,0.0061086523,0.014660766,342.89102,11.005611,24.185238,SIT
3913306264000,3.614991,3.891614717622,-1.890062017622,8.46861197972035,-0.029932396,0.012217305,0.016798794,342.8898,11.00403,24.181526,SIT
3913311246000,3.619973,3.89603286908047,-1.89448016908047,8.45977595360682,-0.029932396,0.008857546,0.016187929,342.88702,11.00234,24.181234,SIT
3913316259000,3.624986,3.89489138504545,-1.89907674491252,8.46205885016128,-0.025045475,0.008857546,0.010079277,342.88477,11.000309,24.179623,SIT
3913321310000,3.630037,3.8901633607272,-1.90380481860033,8.47151460258039,-0.028405234,0.010079277,0.011301007,342.88034,11.00126,24.178268,SIT
3913326266000,3.634993,3.88005138256451,-1.9003630934044,8.472763487297,-0.031154128,0.002443461,0.0070249503,342.8776,11.00027,24.181711,SIT
3913331310000,3.640037,3.86561319011657,-1.89073758151838,8.4679511585135,-0.024740042,0.005192355,0.00030543262,342.87604,10.99766,24.181993,SIT
3913336343000,3.64507,3.85687076263572,-1.88921333736428,8.4633155087046,-0.021991149,0.014660766,0.010079277,342.8738,10.99921,24.181465,SIT
3913341248000,3.649975,3.85247407562711,-1.89361002437289,8.45891872987645,-0.027794369,0.011301007,0.007330383,342.8767,10.999085,24.184828,SIT
3913346228000,3.654955,3.85252125459791,-1.89488527270104,8.456321,-0.018020526,0.010995574,0.003970624,342.87943,10.994343,24.182047,SIT
3913351257000,3.659984,3.8589098106848,-1.8916909946576,8.456321,-0.022602014,0.015577064,0.005192355,342.88162,10.9951,24.178751,SIT
3913356230000,3.664957,3.86522722755099,-1.88853228622451,8.456321,-0.024129177,0.01038471,0.0027488936,342.88483,10.991912,24.178215,SIT
3913361476000,3.670203,3.87189144811806,-1.88520017594097,8.456321,-0.02565634,0.015882496,0.009468411,342.8858,10.991235,24.17284,SIT
3913366199000,3.674926,3.87789127917758,-1.88220026041121,8.456321,-0.018936822,0.014660766,0.0067195175,342.88962,10.987457,24.171524,SIT
3913371285000,3.680012,3.88435224482839,-1.87896977758581,8.456321,-0.02687807,0.013744468,0.008246681,342.89044,10.989242,24.168005,SIT
3913376213000,3.68494,3.89688729883069,-1.87531336023386,8.4580617761194,-0.027794369,0.014966198,0.0067195175,342.89307,10.986853,24.164635,SIT
3913381302000,3.690029,3.92005315832303,-1.87068018833539,8.46269504477612,-0.033292156,0.014049901,0.014660766,342.89212,10.989058,24.161514,SIT
3913386212000,3.694939,3.9347879968516,-1.86427829212901,8.46717756306393,-0.026267206,0.004276057,0.0143553335,342.8921,10.987965,24.163988,SIT
3913391284000,3.700011,3.93012553480514,-1.85262213701286,8.47183987905548,-0.03604105,0.002443461,0.009162978,342.8916,10.992947,24.164331,SIT
3913396235000,3.704962,3.92557430263006,-1.84124405657516,8.47639096866001,-0.04337143,0.005497787,0.01038471,342.88724,10.9957485,24.16922,SIT
3913401293000,3.71002,3.9209247101555,-1.82962007538875,8.48104041548282,-0.032070424,0.013439035,0.01038471,342.885,10.995411,24.173483,SIT
3913406216000,3.714943,3.91641957684152,-1.82033493473772,8.48430937558772,-0.032375857,0.009773844,0.008246681,342.87872,11.003409,24.17778,SIT
3913411227000,3.719954,3.91199537247165,-1.82697124129252,8.47767316142712,-0.037873644,0.002443461,0.0106901415,342.8714,11.010202,24.180628,SIT
3913416187000,3.724914,3.90761619592514,-1.83354000611229,8.47110448806122,-0.03481932,-0.00061086525,0.010079277,342.86697,11.01473,24.17976,SIT
3913421257000,3.729984,3.90313990054393,-1.84025444918411,8.46439013847147,-0.03634648,0.010079277,0.007330383,342.86304,11.021678,24.177114,SIT
3913426228000,3.734955,3.89875101211395,-1.84683778182908,8.45780689748318,-0.023823744,0.012217305,0.0061086523,342.85815,11.024076,24.177683,SIT
3913431309000,3.740036,3.8900132501839,-1.84445012509195,8.44470003259093,-0.027183503,0.0125227375,0.0061086523,342.85443,11.03062,24.175936,SIT
3913436196000,3.744923,3.88045014809971,-1.83966857404986,8.43035507989375,-0.032375857,0.017715093,0.006414085,342.85156,11.034186,24.17236,SIT
3913441257000,3.749984,3.87095539098051,-1.84257260450975,8.43524156881001,-0.04184427,0.016798794,0.010995574,342.85056,11.03925,24.172411,SIT
3913446205000,3.754932,3.8617640406944,-1.8471682796528,8.44443311104646,-0.03970624,0.015882496,0.013439035,342.85046,11.042307,24.171143,SIT
3913451248000,3.759975,3.86490835741703,-1.85559724322271,8.4394704947521,-0.03481932,0.015577064,0.011301007,342.85083,11.046693,24.169476,SIT
3913456192000,3.764919,3.87200767257097,-1.8650629967613,8.43000479063375,-0.03023783,0.009773844,0.0018325958,342.85233,11.049823,24.169943,SIT
3913461251000,3.769978,3.87927212147141,-1.87474892862855,8.42031890933626,-0.03573562,0.015271631,-0.0012217305,342.85446,11.054854,24.164803,SIT
3913466198000,3.774925,3.88637574446222,-1.88422042594962,8.41084746146541,-0.03481932,0.0143553335,0.007330383,342.85507,11.057216,24.16296,SIT
3913471259000,3.779986,3.88228946910563,-1.88368383455281,8.41138412699312,-0.03604105,0.017715093,0.014049901,342.8578,11.060882,24.158699,SIT
3913476189000,3.784916,3.87464663235937,-1.87986241617968,8.41520562517199,-0.03604105,0.0061086523,0.004886922,342.8617,11.062994,24.159386,SIT
3913481215000,3.789942,3.86834377679265,-1.87499543037794,8.42007264096016,-0.036957346,0.004886922,0.002443461,342.86176,11.054243,24.162275,SIT
3913487028000,3.795755,3.86550057258427,-1.86646581775281,8.42860213483146,-0.03726278,0.008246681,0.002443461,342.86325,11.0449095,24.167372,SIT
3913491218000,3.799945,3.86345119607763,-1.86031768823289,8.43475017875383,-0.032986723,0.0106901415,0.0070249503,342.86536,11.03454,24.170736,SIT
3913496269000,3.804996,3.86098069470889,-1.85290618412666,8.44216157967314,-0.032375857,0.0030543262,0.014049901,342.8661,11.025861,24.175728,SIT
3913501265000,3.809992,3.86598358915081,-1.85158889457541,8.45000926276509,-0.03390302,0.0012217305,0.005497787,342.87064,11.015685,24.178993,SIT
3913506192000,3.814919,3.88316203407664,-1.86017811703832,8.45859866460362,-0.02687807,0.00061086525,0.0076358155,342.86926,11.005588,24.182903,SIT
3913511162000,3.819889,3.89442210978297,-1.86580815489149,8.46923627278798,-0.036651913,0.004581489,0.009162978,342.87302,10.997605,24.184404,SIT
3913516192000,3.824919,3.87297689932109,-1.85508554966055,8.49068137128548,-0.027183503,0.004581489,0.004886922,342.87747,10.982794,24.18732,SIT
3913521134000,3.829861,3.86198054993291,-1.84579635006709,8.50336253242881,-0.029626964,0.0076358155,0.006414085,342.8842,10.976191,24.193542,SIT
3913526153000,3.83488,3.86914708626808,-1.83862981373192,8.50097363709557,-0.034513887,0.0076358155,0.01282817,342.8902,10.96822,24.200321,SIT
3913531164000,3.839891,3.87630219955271,-1.83147470044729,8.49858854952537,-0.03268129,0.01038471,0.0125227375,342.9016,10.957203,24.20077,SIT
3913536167000,3.844894,3.88344588978679,-1.82433101021321,8.49620726971821,-0.028710667,0.0143553335,0.01038471,342.9115,10.947755,24.200497,SIT
3913541157000,3.849884,3.88351843259202,-1.82425846740798,8.49773817655628,-0.030848695,0.012217305,0.007941248,342.9196,10.946287,24.199877,SIT
3913546398000,3.855125,3.86889514169175,-1.83888175830825,8.50748724074973,-0.034208454,0.013744468,0.01160644,342.92682,10.94468,24.196857,SIT
3913551221000,3.859948,3.85856971663942,-1.85009066672116,8.51245674728339,-0.042455133,0.010079277,0.014049901,342.93384,10.94329,24.198719,SIT
3913556223000,3.86495,3.85549870637561,-1.85623268724877,8.50785013568612,-0.03359759,0.0030543262,0.014049901,342.94022,10.938553,24.200941,SIT
3913561221000,3.869948,3.85243015193769,-1.86236979612463,8.50324720790461,-0.03848451,0.01038471,0.008246681,342.9473,10.941537,24.196167,SIT
3913566229000,3.874956,3.84935545793506,-1.86851918412988,8.49863507058371,-0.025961773,0.00580322,0.010079277,342.9507,10.938598,24.196226,SIT
3913571521000,3.880248,3.8461064002949,-1.8750172994102,8.49376138234446,-0.029321533,0.0030543262,0.0076358155,342.95773,10.939829,24.19433,SIT
3913576231000,3.884958,3.84321466532038,-1.88080076935923,8.48942368929705,-0.02443461,0.0036651916,0.008552114,342.96298,10.936357,24.19245,SIT
3913581431000,3.890158,3.84108130900226,-1.88702175654176,8.48407386374718,-0.02687807,0.007941248,0.0033597588,342.9708,10.934702,24.19078,SIT
3913586298000,3.895025,3.84949851633409,-1.89123038218059,8.47355235458239,-0.029626964,0.0036651916,0.013133603,342.97308,10.933853,24.190369,SIT
3913591511000,3.900238,3.85851411153047,-1.89573820331377,8.46228286058691,-0.03604105,0.007941248,0.013133603,342.9817,10.926206,24.18868,SIT
3913596216000,3.904943,3.86665114882167,-1.8998067432009,8.45211156397291,-0.03604105,0.0012217305,0.009773844,342.98718,10.918649,24.190845,SIT
3913601224000,3.909951,3.87531220785553,-1.90413729532731,8.44128524018059,-0.027794369,0.008246681,0.009773844,342.9927,10.911225,24.187735,SIT
3913606248000,3.914975,3.87406359793145,-1.8982125807392,8.437167,-0.022602014,0.018936822,0.014049901,342.9976,10.9049225,24.18535,SIT
3913611223000,3.91995,3.86681690659096,-1.88613473661529,8.437167,-0.03573562,0.007941248,0.008552114,343.0044,10.900357,24.18763,SIT
3913616862000,3.925589,3.85860301865747,-1.87244489480329,8.437167,-0.036957346,0.005497787,0.01038471,343.0006,10.901263,24.18636,SIT
3913621249000,3.929976,3.85221282068546,-1.86179454260799,8.437167,-0.036651913,0.0067195175,0.007941248,342.99936,10.90395,24.187698,SIT
3913626216000,3.934943,3.85139788424036,-1.86094346848073,8.43868851601474,-0.030543262,0.01282817,0.015271631,342.99475,10.90674,24.187614,SIT
3913631270000,3.939997,3.85368440857899,-1.86551651715797,8.44097508810469,-0.0421497,0.021685716,0.013439035,342.99396,10.912604,24.18707,SIT
3913636248000,3.944975,3.85593654909297,-1.87002079818594,8.44322727565193,-0.026267206,0.016187929,0.01985312,342.99542,10.912227,24.187489,SIT
3913641245000,3.949972,3.85819728556311,-1.87454227112623,8.44548805933485,-0.031154128,0.014049901,0.01740966,343.00092,10.918797,24.185137,SIT
3913646225000,3.954952,3.86174298815361,-1.87934388815361,8.4444541640269,-0.03390302,0.010079277,0.01740966,343.00317,10.921664,24.184326,SIT
3913651258000,3.959985,3.86697189186375,-1.88457279186374,8.43922515111738,-0.029321533,0.009162978,0.01282817,343.0076,10.922954,24.183668,SIT
3913656247000,3.964974,3.87163202460482,-1.87622280158071,8.44237115788998,-0.027488936,0.01282817,0.0106901415,343.00946,10.935461,24.182064,SIT
3913661228000,3.969955,3.87594076282179,-1.85898784871285,8.45098881428959,-0.03573562,0.0009162979,0.018020526,343.00876,10.94959,24.184748,SIT
3913666220000,3.974947,3.87661705911019,-1.85031344088981,8.46229013956271,-0.03573562,0.009162978,0.019242255,343.00964,10.963751,24.181492,SIT
3913671251000,3.979978,3.87137601910149,-1.85555448089851,8.47801304068313,-0.029626964,0.011911872,0.011301007,343.01007,10.977678,24.183163,SIT
3913676245000,3.984972,3.87405479632606,-1.86292529632606,8.48253854936854,-0.03481932,0.007941248,0.005497787,343.00864,10.992491,24.18276,SIT
3913681250000,3.989977,3.88322660727134,-1.87209710727134,8.47795254812476,-0.032070424,-0.004276057,0.008552114,343.00662,11.003347,24.183882,SIT
3913687693000,3.99642,3.87417918782568,-1.87985498243486,8.47827494092794,-0.034208454,0.0125227375,0.016493361,343.00754,11.016396,24.176146,SIT
3913691243000,3.99997,3.86087911740865,-1.88251499651827,8.48093501056255,-0.03940081,0.011301007,0.012217305,343.00934,11.028037,24.177387,SIT
3913696245000,4.004972,3.84213913086613,-1.88626299382677,8.48468308614349,-0.038789943,0.012217305,0.012217305,343.00687,11.040952,24.174757,SIT
3913701230000,4.009957,3.84862741331269,-1.87413918003096,8.50170653966718,-0.03573562,0.010079277,0.015271631,343.0046,11.053956,24.17343,SIT
3913706181000,4.014908,3.85780209148607,-1.8603771627709,8.52005580021285,-0.035430185,0.004276057,0.01160644,343.0043,11.066252,24.173319,SIT
3913711220000,4.019947,3.86326956722067,-1.86171686722067,8.50809261081756,-0.039095376,0.008857546,0.019547688,343.0002,11.082197,24.164398,SIT
3913716272000,4.024999,3.86791765960227,-1.86636495960227,8.48950033836103,-0.03940081,0.0067195175,0.016493361,342.99994,11.094965,24.159992,SIT
3913721247000,4.029974,3.87249490813719,-1.87094220813719,8.4711914398117,-0.035124753,0.014660766,0.01282817,342.99976,11.105924,24.151205,SIT
3913726222000,4.034949,3.87707215667211,-1.87551945667211,8.45288254126237,-0.034513887,0.008857546,0.01740966,342.99704,11.118097,24.146698,SIT
3913731253000,4.03998,3.88516822984618,-1.88033481492309,8.45002478343689,-0.043982297,0.0143553335,0.013744468,343.00726,11.124238,24.142326,SIT
3913736244000,4.044971,3.89490599266578,-1.88520369633289,8.45489376652745,-0.036651913,0.004276057,0.011911872,343.01398,11.126438,24.14352,SIT
3913741237000,4.049964,3.90042208837099,-1.88396921162901,8.47229118581214,-0.03756821,0.008246681,0.01740966,343.01697,11.135514,24.14368,SIT
3913746247000,4.054974,3.90419972540745,-1.88019157459255,8.49495708692229,-0.035430185,0.014049901,0.014049901,343.02258,11.140402,24.146627,SIT
3913751187000,4.059914,3.90661764683642,-1.87561499367284,8.51666019762732,-0.035124753,0.00580322,0.004581489,343.0267,11.146152,24.153582,SIT
3913756253000,4.06498,3.90193824205247,-1.86625618410494,8.53537771903935,-0.030848695,0.010079277,0.01282817,343.0276,11.151822,24.154423,SIT
3913761251000,4.069978,3.89731310599803,-1.85745320599803,8.55029983333333,-0.040927973,0.01038471,0.020158553,343.03406,11.15836,24.158636,SIT
3913766245000,4.074972,3.89261039811209,-1.85275049811209,8.5314891,-0.039095376,0.00580322,0.014966198,343.0417,11.160063,24.163124,SIT
3913771353000,4.08008,3.88649844755729,-1.84899776097709,8.51243384989191,-0.032986723,0.0012217305,0.008857546,343.04953,11.162295,24.16465,SIT
3913776235000,4.084962,3.86628489909209,-1.85708318036316,8.49626267341116,-0.042760566,-0.002443461,0.008552114,343.05682,11.168125,24.167048,SIT
3913781279000,4.090006,3.84540060198876,-1.8654368992045,8.47955488681366,-0.030848695,-0.0015271631,0.017715093,343.0692,11.1602745,24.173765,SIT
3913786249000,4.094976,3.83691379858129,-1.87763472193323,8.48055280819067,-0.030543262,0.016493361,0.017104227,343.08527,11.156893,24.176968,SIT
3913791179000,4.099906,3.8324483087487,-1.89103121474511,8.48725118282418,-0.041233405,0.009162978,0.015271631,343.0969,11.154402,24.186226,SIT
3913796255000,4.104982,3.82785057520098,-1.90482443939279,8.49414792717299,-0.038789943,0.0076358155,0.008552114,343.1093,11.150147,24.185005,SIT
3913801241000,4.109968,3.82333436175163,-1.91837310331978,8.50092238882058,-0.03970624,0.0076358155,0.015271631,343.11758,11.150939,24.184593,SIT
3913806250000,4.114977,3.82494517013616,-1.91607345645877,8.50673770074966,-0.03604105,0.013744468,0.011911872,343.13104,11.147944,24.183779,SIT
3913811224000,4.119951,3.83223289564996,-1.89906873822734,8.5115960322301,-0.03573562,0.01740966,0.008246681,343.1422,11.146844,24.183147,SIT
3913816302000,4.125029,3.83967299821511,-1.88170847301239,8.51655594522923,-0.029321533,0.018936822,0.008552114,343.1482,11.139418,24.176592,SIT
3913821245000,4.129972,3.84691530364629,-1.86480973513183,8.52138399760314,-0.0290161,0.010079277,0.0070249503,343.1553,11.133068,24.172361,SIT
3913826227000,4.134954,3.85122122143602,-1.86059014287205,8.51663389281988,-0.031154128,0.009773844,0.015271631,343.1599,11.127163,24.164818,SIT
